// General information: 
//  MT Manager version: 2025.0.0 
//  XDA version: 2025.0.0 build 241121001 rev 1732180523 built on 2024-11-21
// Device information: 
//  DeviceId: 0388A23E
//  ProductCode: MTi-3-8A7G6
//  Firmware Version: 1.20.1
//  Hardware Version: 5.0.0
// Device settings: 
//  Filter Profile: general(50.10)
//  Option Flags: Orientation Smoother Disabled, Position/Velocity Smoother Disabled, Continuous Zero Rotation Update Disabled, AHS Disabled, ICC Disabled
// Coordinate system: ENU
PacketCounter,SampleTimeFine,Acc_X,Acc_Y,Acc_Z,AccHR_X,AccHR_Y,AccHR_Z,Mag_X,Mag_Y,Mag_Z,Roll,Pitch,Yaw,Temperature
16892,19319519,0,0,0,-0.131993,0.031852,9.753344,0,0,0,0,0,0,0.00
16897,19319559,0,0,0,-0.117286,0.012770,9.786829,0,0,0,0,0,0,0.00
16900,19319589,0,0,0,-0.112835,0.046302,9.762765,0,0,0,0,0,0,0.00
16905,19319638,0,0,0,-0.098794,0.036795,9.714721,0,0,0,0,0,0,0.00
16909,19319668,0,0,0,-0.127397,0.041449,9.734112,0,0,0,0,0,0,0.00
16913,19319708,0,0,0,-0.127330,0.051023,9.748482,0,0,0,0,0,0,0.00
16918,19319747,0,0,0,-0.127389,0.055809,9.743680,0,0,0,0,0,0,0.00
16922,19319787,0,0,0,-0.117827,0.051066,9.738818,0,0,0,0,0,0,0.00
16926,19319827,0,0,0,-0.117777,0.031918,9.734054,0,0,0,0,0,0,0.00
16931,19319866,0,0,0,-0.117600,0.017557,9.748461,0,0,0,0,0,0,0.00
16935,19319906,0,0,0,-0.117519,0.031918,9.767619,0,0,0,0,0,0,0.00
16940,19319946,0,0,0,-0.117234,0.017557,9.796412,0,0,0,0,0,0,0.00
16944,19319986,0,0,0,-0.117403,0.022344,9.777224,0,0,0,0,0,0,0.00
16948,19320025,0,0,0,-0.088888,0.036839,9.757804,0,0,0,0,0,0,0.00
16953,19320065,0,0,0,-0.103464,0.051133,9.738709,0,0,0,0,0,0,0.00
16957,19320105,0,0,0,-0.113069,0.065451,9.743555,0,0,0,0,0,0,0.00
16961,19320144,0,0,0,-0.108390,0.065473,9.729134,0,0,0,0,0,0,0.00
16966,19320184,0,0,0,-0.156064,0.060463,9.753480,0,0,0,0,0,0,0.00
16970,19320224,0,0,0,-0.122732,0.036683,9.714902,0,0,0,0,0,0,0.00
16975,19320263,0,0,0,-0.141738,0.036594,9.734228,0,0,0,0,0,0,0.00
16978,19320293,0,0,0,-0.117799,0.012770,9.719698,0,0,0,0,0,0,0.00
16982,19320333,0,0,0,-0.117622,0.022344,9.748453,0,0,0,0,0,0,0.00
16987,19320373,0,0,0,-0.112718,0.012793,9.758022,0,0,0,0,0,0,0.00
16991,19320412,0,0,0,-0.112644,0.012793,9.767612,0,0,0,0,0,0,0.00
16996,19320452,0,0,0,-0.098215,0.022433,9.781874,0,0,0,0,0,0,0.00
17000,19320492,0,0,0,-0.132030,0.055787,9.762897,0,0,0,0,0,0,0.00
17004,19320531,0,0,0,-0.132051,0.060575,9.762889,0,0,0,0,0,0,0.00
17009,19320571,0,0,0,-0.141706,0.070104,9.758151,0,0,0,0,0,0,0.00
17013,19320611,0,0,0,-0.118046,0.075002,9.724396,0,0,0,0,0,0,0.00
17016,19320641,0,0,0,-0.151386,0.060485,9.739058,0,0,0,0,0,0,0.00
17022,19320690,0,0,0,-0.137038,0.031829,9.719814,0,0,0,0,0,0,0.00
17026,19320730,0,0,0,-0.151248,0.022188,9.734323,0,0,0,0,0,0,0.00
17031,19320770,0,0,0,-0.117564,-0.006378,9.738909,0,0,0,0,0,0,0.00
17035,19320809,0,0,0,-0.122249,0.003174,9.758110,0,0,0,0,0,0,0.00
17038,19320839,0,0,0,-0.098472,0.022433,9.748308,0,0,0,0,0,0,0.00
17044,19320889,0,0,0,-0.079195,0.027309,9.767336,0,0,0,0,0,0,0.00
17047,19320918,0,0,0,-0.074824,0.070415,9.738461,0,0,0,0,0,0,0.00
17052,19320958,0,0,0,-0.127321,0.065384,9.758050,0,0,0,0,0,0,0.00
17056,19320998,0,0,0,-0.108162,0.079833,9.767471,0,0,0,0,0,0,0.00
17060,19321037,0,0,0,-0.141561,0.070104,9.777331,0,0,0,0,0,0,0.00
17065,19321077,0,0,0,-0.136840,0.060552,9.762925,0,0,0,0,0,0,0.00
17069,19321117,0,0,0,-0.113062,0.031940,9.724427,0,0,0,0,0,0,0.00
17074,19321157,0,0,0,-0.136797,0.003107,9.734244,0,0,0,0,0,0,0.00
17078,19321196,0,0,0,-0.122396,0.003174,9.738930,0,0,0,0,0,0,0.00
17082,19321236,0,0,0,-0.112938,0.012793,9.729252,0,0,0,0,0,0,0.00
17087,19321276,0,0,0,-0.127316,0.007938,9.724574,0,0,0,0,0,0,0.00
17091,19321315,0,0,0,-0.108193,0.046324,9.743548,0,0,0,0,0,0,0.00
17094,19321345,0,0,0,-0.113010,0.060663,9.748358,0,0,0,0,0,0,0.00
17100,19321395,0,0,0,-0.113009,0.084599,9.762705,0,0,0,0,0,0,0.00
17104,19321434,0,0,0,-0.103565,0.089430,9.748240,0,0,0,0,0,0,0.00
17109,19321474,0,0,0,-0.117775,0.079788,9.762749,0,0,0,0,0,0,0.00
17112,19321504,0,0,0,-0.117798,0.060640,9.748394,0,0,0,0,0,0,0.00
17116,19321544,0,0,0,-0.155969,0.031740,9.748730,0,0,0,0,0,0,0.00
17121,19321583,0,0,0,-0.132133,-0.001657,9.715035,0,0,0,0,0,0,0.00
17125,19321623,0,0,0,-0.103326,-0.011099,9.719626,0,0,0,0,0,0,0.00
17130,19321663,0,0,0,-0.127038,-0.020783,9.743799,0,0,0,0,0,0,0.00
17134,19321702,0,0,0,-0.069833,-0.006156,9.719365,0,0,0,0,0,0,0.00
17138,19321742,0,0,0,-0.108098,0.041537,9.753146,0,0,0,0,0,0,0.00
17143,19321782,0,0,0,-0.103354,0.051133,9.753095,0,0,0,0,0,0,0.00
17147,19321821,0,0,0,-0.136802,0.084487,9.782067,0,0,0,0,0,0,0.00
17152,19321861,0,0,0,-0.113193,0.084599,9.738729,0,0,0,0,0,0,0.00
17156,19321901,0,0,0,-0.122674,0.055831,9.734053,0,0,0,0,0,0,0.00
17160,19321941,0,0,0,-0.132441,0.041427,9.700583,0,0,0,0,0,0,0.00
17165,19321980,0,0,0,-0.132242,0.022278,9.714997,0,0,0,0,0,0,0.00
17169,19322020,0,0,0,-0.127074,0.003152,9.753352,0,0,0,0,0,0,0.00
17174,19322060,0,0,0,-0.098340,-0.006289,9.748354,0,0,0,0,0,0,0.00
17177,19322089,0,0,0,-0.122352,-0.006400,9.738945,0,0,0,0,0,0,0.00
17181,19322129,0,0,0,-0.112864,0.012793,9.738842,0,0,0,0,0,0,0.00
17186,19322169,0,0,0,-0.098633,0.041582,9.738688,0,0,0,0,0,0,0.00
17190,19322208,0,0,0,-0.093617,0.032029,9.762643,0,0,0,0,0,0,0.00
17195,19322248,0,0,0,-0.117666,0.055853,9.762787,0,0,0,0,0,0,0.00
17199,19322288,0,0,0,-0.112819,0.075025,9.781900,0,0,0,0,0,0,0.00
17203,19322328,0,0,0,-0.146472,0.065295,9.758195,0,0,0,0,0,0,0.00
17208,19322367,0,0,0,-0.141824,0.079678,9.748546,0,0,0,0,0,0,0.00
17212,19322407,0,0,0,-0.137082,0.041404,9.719799,0,0,0,0,0,0,0.00
17216,19322438,-0.136121,0.052387,9.737925,0,0,0,0.140071,-0.933155,-0.580944,0.264383,0.671692,-173.443757,28.30
17221,19322486,0,0,0,-0.151145,-0.016109,9.724792,0,0,0,0,0,0,0.00
17225,19322526,0,0,0,-0.093742,-0.020628,9.714774,0,0,0,0,0,0,0.00
17230,19322566,0,0,0,-0.141276,-0.016064,9.763081,0,0,0,0,0,0,0.00
17234,19322605,0,0,0,-0.103157,0.008049,9.753162,0,0,0,0,0,0,0.00
17238,19322645,0,0,0,-0.136591,0.022255,9.772574,0,0,0,0,0,0,0.00
17243,19322685,0,0,0,-0.131874,0.070148,9.791644,0,0,0,0,0,0,0.00
17246,19322715,0,0,0,-0.103587,0.094216,9.748233,0,0,0,0,0,0,0.00
17251,19322754,0,0,0,-0.118024,0.118085,9.753098,0,0,0,0,0,0,0.00
17259,19322834,0,0,0,-0.132285,0.079722,9.743678,0,0,0,0,0,0,0.00
17264,19322873,0,0,0,-0.170208,0.012526,9.753664,0,0,0,0,0,0,0.00
17268,19322913,0,0,0,-0.146240,-0.025660,9.734362,0,0,0,0,0,0,0.00
17271,19322943,0,0,0,-0.160280,-0.040088,9.768058,0,0,0,0,0,0,0.00
17277,19322992,0,0,0,-0.103282,-0.020673,9.719642,0,0,0,0,0,0,0.00
17281,19323032,0,0,0,-0.126796,-0.025571,9.772577,0,0,0,0,0,0,0.00
17286,19323072,0,0,0,-0.093808,0.041604,9.743447,0,0,0,0,0,0,0.00
17289,19323102,0,0,0,-0.146341,0.060508,9.772588,0,0,0,0,0,0,0.00
17293,19323141,0,0,0,-0.141999,0.117974,9.748486,0,0,0,0,0,0,0.00
17298,19323181,0,0,0,-0.137138,0.117996,9.758039,0,0,0,0,0,0,0.00
17302,19323221,0,0,0,-0.146685,0.113177,9.758107,0,0,0,0,0,0,0.00
17307,19323260,0,0,0,-0.118047,0.084588,9.729162,0,0,0,0,0,0,0.00
17311,19323300,0,0,0,-0.122506,0.036695,9.743660,0,0,0,0,0,0,0.00
17315,19323340,0,0,0,-0.103318,-0.011086,9.719613,0,0,0,0,0,0,0.00
17320,19323379,0,0,0,-0.141239,-0.030413,9.758296,0,0,0,0,0,0,0.00
17324,19323419,0,0,0,-0.098304,-0.020638,9.743568,0,0,0,0,0,0,0.00
17329,19323459,0,0,0,-0.112572,-0.001556,9.767623,0,0,0,0,0,0,0.00
17333,19323498,0,0,0,-0.117389,0.012782,9.772431,0,0,0,0,0,0,0.00
17337,19323538,0,0,0,-0.117660,0.055866,9.762774,0,0,0,0,0,0,0.00
17342,19323578,0,0,0,-0.127607,0.089331,9.734023,0,0,0,0,0,0,0.00
17346,19323618,0,0,0,-0.165771,0.074792,9.743927,0,0,0,0,0,0,0.00
17351,19323657,0,0,0,-0.089292,0.070360,9.724173,0,0,0,0,0,0,0.00
17354,19323687,0,0,0,-0.122564,0.041482,9.738857,0,0,0,0,0,0,0.00
17358,19323727,0,0,0,-0.141818,0.031819,9.719837,0,0,0,0,0,0,0.00
17363,19323766,0,0,0,-0.151167,0.022202,9.743900,0,0,0,0,0,0,0.00
17367,19323806,0,0,0,-0.112945,0.031953,9.738800,0,0,0,0,0,0,0.00
17372,19323846,0,0,0,-0.117506,0.022357,9.762826,0,0,0,0,0,0,0.00
17376,19323886,0,0,0,-0.079357,0.032108,9.748136,0,0,0,0,0,0,0.00
17380,19323925,0,0,0,-0.093171,0.008106,9.805823,0,0,0,0,0,0,0.00
17385,19323965,0,0,0,-0.098523,0.003297,9.729145,0,0,0,0,0,0,0.00
17389,19324005,0,0,0,-0.102974,-0.030235,9.753210,0,0,0,0,0,0,0.00
17393,19324044,0,0,0,-0.122330,0.046269,9.772415,0,0,0,0,0,0,0.00
17398,19324084,0,0,0,-0.165523,0.060431,9.767925,0,0,0,0,0,0,0.00
17402,19324124,0,0,0,-0.137133,0.070138,9.729331,0,0,0,0,0,0,0.00
17407,19324163,0,0,0,-0.136766,0.070138,9.777283,0,0,0,0,0,0,0.00
17411,19324203,0,0,0,-0.113031,0.075036,9.753118,0,0,0,0,0,0,0.00
17414,19324233,0,0,0,-0.098706,0.051167,9.733865,0,0,0,0,0,0,0.00
17420,19324282,0,0,0,-0.093618,0.017680,9.753062,0,0,0,0,0,0,0.00
17423,19324312,0,0,0,-0.088903,0.017702,9.743436,0,0,0,0,0,0,0.00
17428,19324352,0,0,0,-0.117484,-0.006366,9.748487,0,0,0,0,0,0,0.00
17432,19324392,0,0,0,-0.122264,0.007973,9.758090,0,0,0,0,0,0,0.00
17436,19324431,0,0,0,-0.112907,0.055888,9.757942,0,0,0,0,0,0,0.00
17441,19324471,0,0,0,-0.112864,0.070250,9.772305,0,0,0,0,0,0,0.00
17445,19324511,0,0,0,-0.117805,0.079802,9.757941,0,0,0,0,0,0,0.00
17450,19324550,0,0,0,-0.098742,0.075103,9.743419,0,0,0,0,0,0,0.00
17454,19324590,0,0,0,-0.113010,0.070250,9.753125,0,0,0,0,0,0,0.00
17458,19324630,0,0,0,-0.084123,0.027299,9.748179,0,0,0,0,0,0,0.00
17463,19324669,0,0,0,-0.045785,-0.020394,9.723988,0,0,0,0,0,0,0.00
17467,19324709,0,0,0,0.011808,-0.034489,9.733164,0,0,0,0,0,0,0.00
17470,19324739,0,0,0,0.059327,0.004029,9.708765,0,0,0,0,0,0,0.00
17476,19324789,0,0,0,-0.269763,-0.026225,9.859966,0,0,0,0,0,0,0.00
17480,19324828,0,0,0,-0.165493,0.046070,9.763152,0,0,0,0,0,0,0.00
17485,19324868,0,0,0,-0.375196,0.035518,9.884644,0,0,0,0,0,0,0.00
17489,19324908,0,0,0,-0.109306,0.122929,9.642719,0,0,0,0,0,0,0.00
17492,19324937,0,0,0,-0.056494,0.123173,9.661500,0,0,0,0,0,0,0.00
17497,19324977,0,0,0,-0.003923,0.152140,9.665851,0,0,0,0,0,0,0.00
17501,19325017,0,0,0,0.015176,0.099571,9.627426,0,0,0,0,0,0,0.00
17506,19325056,0,0,0,-0.112527,0.012804,9.781985,0,0,0,0,0,0,0.00
17510,19325096,0,0,0,-0.217602,0.012316,9.816351,0,0,0,0,0,0,0.00
17514,19325136,0,0,0,-0.374478,-0.041074,9.932714,0,0,0,0,0,0,0.00
17519,19325176,0,0,0,-0.136087,-0.102197,9.763166,0,0,0,0,0,0,0.00
17523,19325215,0,0,0,0.087966,-0.048494,9.665473,0,0,0,0,0,0,0.00
17527,19325238,-0.106156,-0.071200,9.763663,0,0,0,0.142534,-0.933663,-0.579425,0.241096,0.666736,-173.138889,28.29
17532,19325295,0,0,0,0.045037,0.003963,9.718464,0,0,0,0,0,0,0.00
17536,19325334,0,0,0,-0.074561,0.070427,9.772015,0,0,0,0,0,0,0.00
17541,19325374,0,0,0,-0.279819,0.150853,9.902918,0,0,0,0,0,0,0.00
17545,19325414,0,0,0,-0.275493,0.179596,9.859680,0,0,0,0,0,0,0.00
17548,19325444,0,0,0,-0.366337,0.160027,9.865196,0,0,0,0,0,0,0.00
17554,19325493,0,0,0,-0.166327,0.108301,9.691128,0,0,0,0,0,0,0.00
17557,19325523,0,0,0,-0.189939,0.036384,9.691422,0,0,0,0,0,0,0.00
17562,19325563,0,0,0,-0.070875,-0.001357,9.585082,0,0,0,0,0,0,0.00
17570,19325642,0,0,0,-0.007616,-0.087235,9.666261,0,0,0,0,0,0,0.00
17575,19325682,0,0,0,-0.011641,-0.077683,9.771774,0,0,0,0,0,0,0.00
17579,19325721,0,0,0,-0.006881,-0.015429,9.805206,0,0,0,0,0,0,0.00
17584,19325761,0,0,0,-0.035555,0.061029,9.858050,0,0,0,0,0,0,0.00
17588,19325801,0,0,0,-0.098096,0.118187,9.853638,0,0,0,0,0,0,0.00
17591,19325831,0,0,0,-0.179348,0.127383,9.878217,0,0,0,0,0,0,0.00
17597,19325880,0,0,0,-0.275267,0.122151,9.854976,0,0,0,0,0,0,0.00
17600,19325910,0,0,0,-0.290297,0.107723,9.759205,0,0,0,0,0,0,0.00
17605,19325950,0,0,0,-0.257121,0.045648,9.677531,0,0,0,0,0,0,0.00
17609,19325989,0,0,0,-0.166491,0.007773,9.609769,0,0,0,0,0,0,0.00
17613,19326029,0,0,0,-0.051628,-0.029990,9.580187,0,0,0,0,0,0,0.00
17618,19326069,0,0,0,0.015592,-0.039253,9.598872,0,0,0,0,0,0,0.00
17622,19326108,0,0,0,0.006661,-0.020150,9.694817,0,0,0,0,0,0,0.00
17627,19326148,0,0,0,-0.035709,-0.001202,9.800607,0,0,0,0,0,0,0.00
17631,19326188,0,0,0,-0.063989,0.036962,9.882281,0,0,0,0,0,0,0.00
17635,19326227,0,0,0,-0.245214,0.016971,9.965208,0,0,0,0,0,0,0.00
17640,19326267,0,0,0,-0.169658,0.046047,9.844706,0,0,0,0,0,0,0.00
17644,19326307,0,0,0,-0.222104,0.045803,9.873876,0,0,0,0,0,0,0.00
17648,19326338,-0.202342,0.050728,9.859260,0,0,0,0.141027,-0.932184,-0.578420,0.264308,0.661973,-173.036577,28.29
17653,19326386,0,0,0,-0.256892,0.083943,9.730217,0,0,0,0,0,0,0.00
17657,19326426,0,0,0,-0.037995,0.089752,9.555915,0,0,0,0,0,0,0.00
17662,19326466,0,0,0,-0.175678,0.026876,9.672149,0,0,0,0,0,0,0.00
17666,19326505,0,0,0,0.043813,0.023111,9.569786,0,0,0,0,0,0,0.00
17669,19326535,0,0,0,-0.074379,-0.025314,9.738599,0,0,0,0,0,0,0.00
17674,19326575,0,0,0,-0.012328,-0.015451,9.718930,0,0,0,0,0,0,0.00
17678,19326614,0,0,0,-0.058895,-0.053970,9.868002,0,0,0,0,0,0,0.00
17683,19326654,0,0,0,-0.173706,-0.035354,9.892820,0,0,0,0,0,0,0.00
17691,19326734,0,0,0,-0.274770,0.021624,9.859927,0,0,0,0,0,0,0.00
17696,19326773,0,0,0,-0.151590,0.098794,9.734190,0,0,0,0,0,0,0.00
17700,19326813,0,0,0,-0.185354,0.113000,9.710446,0,0,0,0,0,0,0.00
17703,19326843,0,0,0,-0.052365,0.147131,9.589499,0,0,0,0,0,0,0.00
17709,19326892,0,0,0,-0.118494,0.094163,9.676402,0,0,0,0,0,0,0.00
17712,19326922,0,0,0,-0.018339,0.099416,9.627681,0,0,0,0,0,0,0.00
17717,19326962,0,0,0,-0.131584,-0.016006,9.777381,0,0,0,0,0,0,0.00
17721,19327002,0,0,0,-0.064745,-0.030057,9.743329,0,0,0,0,0,0,0.00
17725,19327041,0,0,0,-0.130757,-0.068665,9.854185,0,0,0,0,0,0,0.00
17730,19327081,0,0,0,-0.111869,-0.059001,9.825253,0,0,0,0,0,0,0.00
17734,19327121,0,0,0,-0.149943,-0.044818,9.863882,0,0,0,0,0,0,0.00
17739,19327160,0,0,0,-0.169871,0.012537,9.796807,0,0,0,0,0,0,0.00
17743,19327200,0,0,0,-0.170412,0.074769,9.763144,0,0,0,0,0,0,0.00
17747,19327240,0,0,0,-0.132915,0.146753,9.700404,0,0,0,0,0,0,0.00
17752,19327279,0,0,0,-0.109189,0.161225,9.681020,0,0,0,0,0,0,0.00
17756,19327319,0,0,0,-0.032841,0.137646,9.632524,0,0,0,0,0,0,0.00
17761,19327359,0,0,0,-0.056135,0.084876,9.685534,0,0,0,0,0,0,0.00
17764,19327389,0,0,0,-0.060448,0.013048,9.704864,0,0,0,0,0,0,0.00
17769,19327438,0,0,0,-0.121724,-0.078195,9.777405,0,0,0,0,0,0,0.00
17773,19327468,0,0,0,-0.125998,-0.078217,9.844572,0,0,0,0,0,0,0.00
17777,19327508,0,0,0,-0.159432,-0.087946,9.849637,0,0,0,0,0,0,0.00
17782,19327547,0,0,0,-0.150200,-0.044818,9.830317,0,0,0,0,0,0,0.00
17786,19327587,0,0,0,-0.136466,0.036628,9.796515,0,0,0,0,0,0,0.00
17790,19327627,0,0,0,-0.127548,0.084543,9.738826,0,0,0,0,0,0,0.00
17795,19327666,0,0,0,-0.118545,0.161181,9.709863,0,0,0,0,0,0,0.00
17799,19327706,0,0,0,-0.080526,0.199656,9.695127,0,0,0,0,0,0,0.00
17804,19327746,0,0,0,-0.085111,0.146976,9.690450,0,0,0,0,0,0,0.00
17808,19327785,0,0,0,-0.065659,0.089620,9.695190,0,0,0,0,0,0,0.00
17812,19327825,0,0,0,-0.098304,-0.020638,9.743568,0,0,0,0,0,0,0.00
17817,19327865,0,0,0,-0.121599,-0.097342,9.782230,0,0,0,0,0,0,0.00
17821,19327905,0,0,0,-0.140369,-0.116580,9.820766,0,0,0,0,0,0,0.00
17825,19327944,0,0,0,-0.154939,-0.087924,9.811240,0,0,0,0,0,0,0.00
17830,19327984,0,0,0,-0.164623,-0.064033,9.811275,0,0,0,0,0,0,0.00
17834,19328024,0,0,0,-0.131957,0.041438,9.762906,0,0,0,0,0,0,0.00
17839,19328063,0,0,0,-0.142095,0.132347,9.743656,0,0,0,0,0,0,0.00
17842,19328093,0,0,0,-0.089896,0.194823,9.719183,0,0,0,0,0,0,0.00
17846,19328133,0,0,0,-0.066228,0.214084,9.694996,0,0,0,0,0,0,0.00
17851,19328172,0,0,0,-0.080491,0.175720,9.685574,0,0,0,0,0,0,0.00
17855,19328212,0,0,0,-0.084702,0.065596,9.695373,0,0,0,0,0,0,0.00
17860,19328252,0,0,0,-0.126854,-0.011197,9.772541,0,0,0,0,0,0,0.00
17864,19328292,0,0,0,-0.145663,-0.078305,9.777587,0,0,0,0,0,0,0.00
17868,19328331,0,0,0,-0.174089,-0.111948,9.797038,0,0,0,0,0,0,0.00
17873,19328371,0,0,0,-0.135765,-0.116558,9.796755,0,0,0,0,0,0,0.00
17877,19328411,0,0,0,-0.088407,-0.058890,9.762736,0,0,0,0,0,0,0.00
17881,19328438,-0.130527,-0.087070,9.783514,0,0,0,0.142514,-0.932178,-0.578407,0.229158,0.664543,-172.829604,28.29
17886,19328490,0,0,0,-0.113398,0.098971,9.719514,0,0,0,0,0,0,0.00
17890,19328530,0,0,0,-0.104231,0.180395,9.714519,0,0,0,0,0,0,0.00
17895,19328569,0,0,0,-0.104428,0.199544,9.700104,0,0,0,0,0,0,0.00
17899,19328609,0,0,0,-0.089993,0.175675,9.695237,0,0,0,0,0,0,0.00
17902,19328639,0,0,0,-0.118061,0.103737,9.738724,0,0,0,0,0,0,0.00
17908,19328689,0,0,0,-0.117617,-0.001578,9.734093,0,0,0,0,0,0,0.00
17911,19328718,0,0,0,-0.150355,-0.083114,9.787221,0,0,0,0,0,0,0.00
17916,19328758,0,0,0,-0.159609,-0.121455,9.806534,0,0,0,0,0,0,0.00
17924,19328837,0,0,0,-0.155217,-0.083137,9.777667,0,0,0,0,0,0,0.00
17929,19328877,0,0,0,-0.112813,0.027165,9.753193,0,0,0,0,0,0,0.00
17933,19328917,0,0,0,-0.094269,0.103848,9.719361,0,0,0,0,0,0,0.00
17938,19328956,0,0,0,-0.080431,0.194868,9.704724,0,0,0,0,0,0,0.00
17942,19328996,0,0,0,-0.075774,0.223613,9.704643,0,0,0,0,0,0,0.00
17946,19329036,0,0,0,-0.099224,0.156483,9.728906,0,0,0,0,0,0,0.00
17951,19329076,0,0,0,-0.108157,0.055910,9.753111,0,0,0,0,0,0,0.00
17954,19329105,0,0,0,-0.145940,-0.025647,9.772710,0,0,0,0,0,0,0.00
17958,19329145,0,0,0,-0.126541,-0.087790,9.767866,0,0,0,0,0,0,0.00
17963,19329185,0,0,0,-0.169148,-0.169371,9.782706,0,0,0,0,0,0,0.00
17967,19329224,0,0,0,-0.126541,-0.135661,9.739170,0,0,0,0,0,0,0.00
17972,19329264,0,0,0,-0.160188,-0.083158,9.753728,0,0,0,0,0,0,0.00
17976,19329304,0,0,0,-0.117828,0.036717,9.729238,0,0,0,0,0,0,0.00
17980,19329343,0,0,0,-0.094335,0.142144,9.733686,0,0,0,0,0,0,0.00
17985,19329383,0,0,0,-0.085145,0.218781,9.728699,0,0,0,0,0,0,0.00
17989,19329423,0,0,0,-0.080475,0.228377,9.719057,0,0,0,0,0,0,0.00
17994,19329463,0,0,0,-0.094319,0.170866,9.752823,0,0,0,0,0,0,0.00
17998,19329502,0,0,0,-0.127264,0.070183,9.767619,0,0,0,0,0,0,0.00
18002,19329542,0,0,0,-0.150376,-0.054392,9.801561,0,0,0,0,0,0,0.00
18007,19329582,0,0,0,-0.164726,-0.121477,9.763414,0,0,0,0,0,0,0.00
18011,19329621,0,0,0,-0.178914,-0.135905,9.777931,0,0,0,0,0,0,0.00
18016,19329661,0,0,0,-0.117149,-0.087746,9.743818,0,0,0,0,0,0,0.00
18019,19329691,0,0,0,-0.141195,-0.039987,9.758310,0,0,0,0,0,0,0.00
18023,19329730,0,0,0,-0.079701,0.051256,9.714539,0,0,0,0,0,0,0.00
18028,19329770,0,0,0,-0.075146,0.142233,9.738337,0,0,0,0,0,0,0.00
18032,19329810,0,0,0,-0.113981,0.218648,9.714532,0,0,0,0,0,0,0.00
18037,19329850,0,0,0,-0.090087,0.204397,9.699987,0,0,0,0,0,0,0.00
18041,19329889,0,0,0,-0.132615,0.113244,9.719637,0,0,0,0,0,0,0.00
18045,19329929,0,0,0,-0.146467,0.041371,9.743834,0,0,0,0,0,0,0.00
18050,19329969,0,0,0,-0.150662,-0.063966,9.758421,0,0,0,0,0,0,0.00
18054,19330008,0,0,0,-0.135926,-0.121345,9.772787,0,0,0,0,0,0,0.00
18058,19330038,-0.149858,-0.070010,9.766280,0,0,0,0.143052,-0.933138,-0.581419,0.239266,0.655261,-172.654196,28.29
18063,19330088,0,0,0,-0.136065,-0.083048,9.777522,0,0,0,0,0,0,0.00
18067,19330127,0,0,0,-0.093640,-0.001468,9.738708,0,0,0,0,0,0,0.00
18072,19330167,0,0,0,-0.098895,0.108612,9.743366,0,0,0,0,0,0,0.00
18076,19330207,0,0,0,-0.065870,0.175787,9.719030,0,0,0,0,0,0,0.00
18080,19330238,-0.095989,0.128106,9.737494,0,0,0,0.143027,-0.934165,-0.578926,0.277845,0.670205,-172.623849,28.29
18085,19330286,0,0,0,-0.108814,0.175587,9.738539,0,0,0,0,0,0,0.00
18088,19330316,0,0,0,-0.118113,0.122885,9.743489,0,0,0,0,0,0,0.00
18093,19330356,0,0,0,-0.136884,0.055777,9.753329,0,0,0,0,0,0,0.00
18101,19330435,0,0,0,-0.145715,-0.107027,9.753656,0,0,0,0,0,0,0.00
18106,19330475,0,0,0,-0.121760,-0.102130,9.758262,0,0,0,0,0,0,0.00
18110,19330514,0,0,0,-0.112588,-0.054214,9.734138,0,0,0,0,0,0,0.00
18113,19330544,0,0,0,-0.103112,0.008061,9.757945,0,0,0,0,0,0,0.00
18119,19330594,0,0,0,-0.074839,0.099149,9.752789,0,0,0,0,0,0,0.00
18127,19330663,0,0,0,-0.089494,0.170888,9.757582,0,0,0,0,0,0,0.00
18131,19330703,0,0,0,-0.094041,0.142144,9.772048,0,0,0,0,0,0,0.00
18135,19330743,0,0,0,-0.146692,0.122751,9.762888,0,0,0,0,0,0,0.00
18140,19330782,0,0,0,-0.156057,0.036539,9.739120,0,0,0,0,0,0,0.00
18144,19330822,0,0,0,-0.170121,-0.044908,9.729765,0,0,0,0,0,0,0.00
18149,19330862,0,0,0,-0.160480,-0.083158,9.715366,0,0,0,0,0,0,0.00
18153,19330901,0,0,0,-0.141175,-0.092645,9.729622,0,0,0,0,0,0,0.00
18157,19330941,0,0,0,-0.103026,-0.058957,9.729279,0,0,0,0,0,0,0.00
18162,19330981,0,0,0,-0.088925,0.022490,9.743428,0,0,0,0,0,0,0.00
18166,19331021,0,0,0,-0.069876,0.084809,9.767160,0,0,0,0,0,0,0.00
18171,19331060,0,0,0,-0.065262,0.147064,9.781412,0,0,0,0,0,0,0.00
18174,19331090,0,0,0,-0.070035,0.175764,9.800584,0,0,0,0,0,0,0.00
18178,19331130,0,0,0,-0.108155,0.151651,9.810503,0,0,0,0,0,0,0.00
18183,19331169,0,0,0,-0.127167,0.089331,9.791565,0,0,0,0,0,0,0.00
18187,19331209,0,0,0,-0.150829,0.012627,9.782276,0,0,0,0,0,0,0.00
18192,19331249,0,0,0,-0.160172,-0.054437,9.772863,0,0,0,0,0,0,0.00
18196,19331288,0,0,0,-0.165385,-0.073606,9.705797,0,0,0,0,0,0,0.00
18200,19331328,0,0,0,-0.141366,-0.083070,9.710426,0,0,0,0,0,0,0.00
18205,19331368,0,0,0,-0.117822,-0.020727,9.695762,0,0,0,0,0,0,0.00
18209,19331408,0,0,0,-0.103523,0.017635,9.709978,0,0,0,0,0,0,0.00
18213,19331438,-0.115819,-0.012259,9.699162,0,0,0,0.142041,-0.934163,-0.579435,0.251157,0.673994,-172.490501,28.29
18218,19331487,0,0,0,-0.079619,0.113488,9.762393,0,0,0,0,0,0,0.00
18222,19331527,0,0,0,-0.079524,0.132636,9.786339,0,0,0,0,0,0,0.00
18227,19331566,0,0,0,-0.117658,0.127672,9.805818,0,0,0,0,0,0,0.00
18231,19331606,0,0,0,-0.131706,0.074947,9.815599,0,0,0,0,0,0,0.00
18235,19331638,-0.118498,0.098578,9.804318,0,0,0,0.141536,-0.934675,-0.578444,0.267803,0.656626,-172.465604,28.29
18240,19331685,0,0,0,-0.160582,-0.020927,9.739245,0,0,0,0,0,0,0.00
18243,19331715,0,0,0,-0.141138,-0.068709,9.748766,0,0,0,0,0,0,0.00
18248,19331755,0,0,0,-0.132097,-0.039942,9.695901,0,0,0,0,0,0,0.00
18256,19331834,0,0,0,-0.093992,0.003319,9.695543,0,0,0,0,0,0,0.00
18261,19331874,0,0,0,-0.117894,0.051079,9.729215,0,0,0,0,0,0,0.00
18265,19331914,0,0,0,-0.065351,0.094407,9.738339,0,0,0,0,0,0,0.00
18268,19331943,0,0,0,-0.117834,0.118098,9.777061,0,0,0,0,0,0,0.00
18274,19331993,0,0,0,-0.117863,0.132459,9.781835,0,0,0,0,0,0,0.00
18282,19332063,0,0,0,-0.165376,0.060431,9.787106,0,0,0,0,0,0,0.00
18286,19332102,0,0,0,-0.146240,0.007862,9.753477,0,0,0,0,0,0,0.00
18290,19332142,0,0,0,-0.150779,-0.030457,9.763164,0,0,0,0,0,0,0.00
18295,19332182,0,0,0,-0.088903,-0.030169,9.714740,0,0,0,0,0,0,0.00
18299,19332221,0,0,0,-0.127082,-0.025558,9.734202,0,0,0,0,0,0,0.00
18304,19332261,0,0,0,-0.069878,0.013003,9.724116,0,0,0,0,0,0,0.00
18308,19332301,0,0,0,-0.112798,0.055888,9.772327,0,0,0,0,0,0,0.00
18312,19332340,0,0,0,-0.084377,0.099105,9.757657,0,0,0,0,0,0,0.00
18317,19332380,0,0,0,-0.117783,0.098949,9.772297,0,0,0,0,0,0,0.00
18321,19332420,0,0,0,-0.146392,0.089242,9.782121,0,0,0,0,0,0,0.00
18326,19332459,0,0,0,-0.146238,0.079668,9.796520,0,0,0,0,0,0,0.00
18329,19332489,0,0,0,-0.170281,0.046047,9.763189,0,0,0,0,0,0,0.00
18333,19332529,0,0,0,-0.136906,0.036628,9.738975,0,0,0,0,0,0,0.00
18338,19332569,0,0,0,-0.146417,-0.001712,9.724721,0,0,0,0,0,0,0.00
18342,19332608,0,0,0,-0.117602,-0.020727,9.724532,0,0,0,0,0,0,0.00
18347,19332648,0,0,0,-0.103289,-0.001513,9.729189,0,0,0,0,0,0,0.00
18351,19332688,0,0,0,-0.069789,0.017791,9.738495,0,0,0,0,0,0,0.00
18355,19332727,0,0,0,-0.074481,0.036917,9.762477,0,0,0,0,0,0,0.00
18360,19332767,0,0,0,-0.079262,0.051256,9.772080,0,0,0,0,0,0,0.00
18364,19332807,0,0,0,-0.112637,0.060675,9.796296,0,0,0,0,0,0,0.00
18368,19332838,-0.093791,0.054889,9.778130,0,0,0,0.142549,-0.935153,-0.579943,0.266903,0.657960,-172.326428,28.29
18373,19332886,0,0,0,-0.136781,0.065351,9.772495,0,0,0,0,0,0,0.00
18377,19332926,0,0,0,-0.156079,0.041327,9.739112,0,0,0,0,0,0,0.00
18382,19332966,0,0,0,-0.137067,0.031841,9.715006,0,0,0,0,0,0,0.00
18386,19333005,0,0,0,-0.151328,-0.006521,9.705585,0,0,0,0,0,0,0.00
18390,19333045,0,0,0,-0.112989,0.017591,9.724436,0,0,0,0,0,0,0.00
18395,19333085,0,0,0,-0.098633,0.003297,9.714760,0,0,0,0,0,0,0.00
18398,19333114,0,0,0,-0.088793,0.017702,9.757821,0,0,0,0,0,0,0.00
18403,19333154,0,0,0,-0.088581,0.017691,9.786604,0,0,0,0,0,0,0.00
18411,19333233,0,0,0,-0.126743,0.051023,9.825203,0,0,0,0,0,0,0.00
18416,19333273,0,0,0,-0.098287,0.070304,9.800980,0,0,0,0,0,0,0.00
18420,19333313,0,0,0,-0.160601,0.070015,9.791862,0,0,0,0,0,0,0.00
18423,19333343,0,0,0,-0.151152,0.041337,9.758268,0,0,0,0,0,0,0.00
18429,19333392,0,0,0,-0.165743,0.050845,9.734386,0,0,0,0,0,0,0.00
18433,19333432,0,0,0,-0.146818,0.036572,9.695904,0,0,0,0,0,0,0.00
18438,19333472,0,0,0,-0.132272,0.012704,9.705422,0,0,0,0,0,0,0.00
18441,19333501,0,0,0,-0.103457,0.017624,9.719582,0,0,0,0,0,0,0.00
18445,19333541,0,0,0,-0.079387,0.012948,9.733792,0,0,0,0,0,0,0.00
18450,19333581,0,0,0,-0.079210,0.022522,9.762547,0,0,0,0,0,0,0.00
18454,19333621,0,0,0,-0.079071,0.032096,9.786509,0,0,0,0,0,0,0.00
18459,19333660,0,0,0,-0.141136,0.041382,9.815737,0,0,0,0,0,0,0.00
18463,19333700,0,0,0,-0.098251,0.046369,9.791427,0,0,0,0,0,0,0.00
18467,19333740,0,0,0,-0.146114,0.050934,9.796577,0,0,0,0,0,0,0.00
18472,19333779,0,0,0,-0.122490,0.055831,9.758028,0,0,0,0,0,0,0.00
18476,19333819,0,0,0,-0.141839,0.074891,9.743758,0,0,0,0,0,0,0.00
18481,19333859,0,0,0,-0.151577,0.046124,9.705515,0,0,0,0,0,0,0.00
18485,19333898,0,0,0,-0.108559,0.070259,9.709946,0,0,0,0,0,0,0.00
18489,19333938,0,0,0,-0.084533,0.027287,9.695447,0,0,0,0,0,0,0.00
18494,19333978,0,0,0,-0.107849,0.003241,9.762796,0,0,0,0,0,0,0.00
18498,19334017,0,0,0,-0.074621,0.017757,9.733748,0,0,0,0,0,0,0.00
18503,19334057,0,0,0,-0.136129,-0.006467,9.815776,0,0,0,0,0,0,0.00
18506,19334087,0,0,0,-0.117380,0.041492,9.791579,0,0,0,0,0,0,0.00
18510,19334127,0,0,0,-0.131634,0.041427,9.806074,0,0,0,0,0,0,0.00
18515,19334166,0,0,0,-0.141459,0.055742,9.782149,0,0,0,0,0,0,0.00
18519,19334206,0,0,0,-0.151304,0.074846,9.758216,0,0,0,0,0,0,0.00
18524,19334246,0,0,0,-0.141839,0.074891,9.743758,0,0,0,0,0,0,0.00
18528,19334285,0,0,0,-0.127563,0.070170,9.729272,0,0,0,0,0,0,0.00
18532,19334325,0,0,0,-0.103662,0.046346,9.709947,0,0,0,0,0,0,0.00
18537,19334365,0,0,0,-0.084453,0.017713,9.700256,0,0,0,0,0,0,0.00
18541,19334404,0,0,0,-0.122322,0.003174,9.748520,0,0,0,0,0,0,0.00
18545,19334444,0,0,0,-0.064884,-0.001347,9.743297,0,0,0,0,0,0,0.00
18550,19334484,0,0,0,-0.131319,-0.011231,9.815746,0,0,0,0,0,0,0.00
18554,19334524,0,0,0,-0.079225,0.017735,9.757760,0,0,0,0,0,0,0.00
18559,19334563,0,0,0,-0.141210,0.041382,9.806147,0,0,0,0,0,0,0.00
18563,19334603,0,0,0,-0.122423,0.065406,9.772398,0,0,0,0,0,0,0.00
18566,19334633,0,0,0,-0.151253,0.079633,9.767798,0,0,0,0,0,0,0.00
18572,19334682,0,0,0,-0.113398,0.089386,9.714747,0,0,0,0,0,0,0.00
18575,19334712,0,0,0,-0.141891,0.070104,9.734176,0,0,0,0,0,0,0.00
18580,19334752,0,0,0,-0.075301,0.070415,9.676126,0,0,0,0,0,0,0.00
18584,19334791,0,0,0,-0.131986,0.022278,9.748563,0,0,0,0,0,0,0.00
18588,19334831,0,0,0,-0.065060,0.013015,9.728889,0,0,0,0,0,0,0.00
18593,19334871,0,0,0,-0.107461,-0.025482,9.796407,0,0,0,0,0,0,0.00
18597,19334911,0,0,0,-0.088420,-0.001458,9.796225,0,0,0,0,0,0,0.00
18602,19334950,0,0,0,-0.097959,-0.001502,9.801092,0,0,0,0,0,0,0.00
18606,19334990,0,0,0,-0.131715,0.027065,9.786917,0,0,0,0,0,0,0.00
18610,19335030,0,0,0,-0.112791,0.060663,9.777128,0,0,0,0,0,0,0.00
18615,19335069,0,0,0,-0.137125,0.074913,9.734132,0,0,0,0,0,0,0.00
18619,19335109,0,0,0,-0.137322,0.094061,9.719717,0,0,0,0,0,0,0.00
18622,19335139,0,0,0,-0.127585,0.074958,9.729264,0,0,0,0,0,0,0.00
18628,19335188,0,0,0,-0.113457,0.070237,9.695597,0,0,0,0,0,0,0.00
18632,19335228,0,0,0,-0.117967,0.041492,9.714858,0,0,0,0,0,0,0.00
18637,19335268,0,0,0,-0.103113,-0.001525,9.753178,0,0,0,0,0,0,0.00
18640,19335298,0,0,0,-0.098135,-0.011076,9.772336,0,0,0,0,0,0,0.00
18644,19335337,0,0,0,-0.126686,-0.025571,9.786963,0,0,0,0,0,0,0.00
18649,19335377,0,0,0,-0.112411,-0.006355,9.786823,0,0,0,0,0,0,0.00
18653,19335417,0,0,0,-0.141100,0.017447,9.806184,0,0,0,0,0,0,0.00
18658,19335456,0,0,0,-0.136774,0.046190,9.762947,0,0,0,0,0,0,0.00
18662,19335496,0,0,0,-0.146464,0.079656,9.767762,0,0,0,0,0,0,0.00
18666,19335536,0,0,0,-0.108551,0.108556,9.733861,0,0,0,0,0,0,0.00
18671,19335575,0,0,0,-0.118229,0.098937,9.714768,0,0,0,0,0,0,0.00
18675,19335615,0,0,0,-0.122820,0.055831,9.714872,0,0,0,0,0,0,0.00
18678,19335645,0,0,0,-0.108171,0.017602,9.729208,0,0,0,0,0,0,0.00
18684,19335695,0,0,0,-0.112741,-0.006355,9.743668,0,0,0,0,0,0,0.00
18688,19335734,0,0,0,-0.126899,-0.035145,9.753412,0,0,0,0,0,0,0.00
18693,19335774,0,0,0,-0.122066,-0.020761,9.767737,0,0,0,0,0,0,0.00
18697,19335814,0,0,0,-0.117256,-0.001592,9.782057,0,0,0,0,0,0,0.00
18700,19335843,0,0,0,-0.112761,0.022367,9.758007,0,0,0,0,0,0,0.00
18706,19335893,0,0,0,-0.127292,0.074958,9.767625,0,0,0,0,0,0,0.00
18709,19335923,0,0,0,-0.117936,0.098937,9.753129,0,0,0,0,0,0,0.00
18714,19335962,0,0,0,-0.132431,0.103658,9.738846,0,0,0,0,0,0,0.00
18718,19336002,0,0,0,-0.099064,0.103813,9.719411,0,0,0,0,0,0,0.00
18722,19336042,0,0,0,-0.108521,0.070259,9.714741,0,0,0,0,0,0,0.00
18727,19336082,0,0,0,-0.112982,0.046302,9.743585,0,0,0,0,0,0,0.00
18731,19336121,0,0,0,-0.103098,0.003263,9.757965,0,0,0,0,0,0,0.00
18736,19336161,0,0,0,-0.131722,-0.011231,9.763000,0,0,0,0,0,0,0.00
18740,19336201,0,0,0,-0.112579,-0.025504,9.753287,0,0,0,0,0,0,0.00
18744,19336240,0,0,0,-0.126847,-0.006422,9.777343,0,0,0,0,0,0,0.00
18749,19336280,0,0,0,-0.136627,0.022255,9.767779,0,0,0,0,0,0,0.00
18753,19336320,0,0,0,-0.112950,0.079811,9.767508,0,0,0,0,0,0,0.00
18758,19336359,0,0,0,-0.122657,0.108489,9.767535,0,0,0,0,0,0,0.00
18761,19336389,0,0,0,-0.084670,0.113454,9.728877,0,0,0,0,0,0,0.00
18765,19336429,0,0,0,-0.141794,0.089252,9.758121,0,0,0,0,0,0,0.00
18771,19336478,0,0,0,-0.093882,0.041604,9.733857,0,0,0,0,0,0,0.00
18774,19336508,0,0,0,-0.136885,0.022255,9.734214,0,0,0,0,0,0,0.00
18779,19336548,0,0,0,-0.098201,-0.020650,9.757966,0,0,0,0,0,0,0.00
18783,19336588,0,0,0,-0.126832,-0.025571,9.767782,0,0,0,0,0,0,0.00
18787,19336627,0,0,0,-0.112579,-0.025504,9.753287,0,0,0,0,0,0,0.00
18792,19336667,0,0,0,-0.136467,0.003107,9.777400,0,0,0,0,0,0,0.00
18796,19336707,0,0,0,-0.103311,0.041559,9.753110,0,0,0,0,0,0,0.00
18801,19336746,0,0,0,-0.132131,0.070148,9.758079,0,0,0,0,0,0,0.00
18805,19336786,0,0,0,-0.127607,0.103680,9.743605,0,0,0,0,0,0,0.00
18809,19336826,0,0,0,-0.103704,0.103790,9.738627,0,0,0,0,0,0,0.00
18814,19336866,0,0,0,-0.098705,0.065517,9.743446,0,0,0,0,0,0,0.00
18818,19336905,0,0,0,-0.117681,0.051066,9.757998,0,0,0,0,0,0,0.00
18822,19336945,0,0,0,-0.107929,0.012815,9.757986,0,0,0,0,0,0,0.00
18827,19336985,0,0,0,-0.107805,-0.006333,9.762812,0,0,0,0,0,0,0.00
18831,19337024,0,0,0,-0.117278,-0.020740,9.767701,0,0,0,0,0,0,0.00
18836,19337064,0,0,0,-0.126884,-0.030357,9.758200,0,0,0,0,0,0,0.00
18839,19337094,0,0,0,-0.117395,-0.011166,9.758096,0,0,0,0,0,0,0.00
18843,19337133,0,0,0,-0.103281,0.051133,9.762685,0,0,0,0,0,0,0.00
18848,19337173,0,0,0,-0.122664,0.094128,9.757968,0,0,0,0,0,0,0.00
18852,19337213,0,0,0,-0.118032,0.103724,9.743531,0,0,0,0,0,0,0.00
18857,19337253,0,0,0,-0.137066,0.094061,9.753283,0,0,0,0,0,0,0.00
18861,19337292,0,0,0,-0.094166,0.079900,9.719412,0,0,0,0,0,0,0.00
18865,19337332,0,0,0,-0.127272,0.046235,9.753284,0,0,0,0,0,0,0.00
18870,19337372,0,0,0,-0.117513,0.022344,9.762838,0,0,0,0,0,0,0.00
18874,19337411,0,0,0,-0.141328,-0.020850,9.753498,0,0,0,0,0,0,0.00
18878,19337438,-0.128685,0.013667,9.752687,0,0,0,0.142047,-0.934157,-0.579936,0.261461,0.657784,-171.795310,28.30
18883,19337491,0,0,0,-0.141211,-0.006489,9.777452,0,0,0,0,0,0,0.00
18887,19337530,0,0,0,-0.112769,0.008005,9.748440,0,0,0,0,0,0,0.00
18892,19337570,0,0,0,-0.136474,0.036616,9.796528,0,0,0,0,0,0,0.00
18896,19337610,0,0,0,-0.127365,0.074958,9.758035,0,0,0,0,0,0,0.00
18899,19337640,0,0,0,-0.137000,0.079700,9.753304,0,0,0,0,0,0,0.00
18905,19337689,0,0,0,-0.103748,0.089430,9.724265,0,0,0,0,0,0,0.00
18908,19337719,0,0,0,-0.136963,0.079700,9.758100,0,0,0,0,0,0,0.00
18913,19337759,0,0,0,-0.122592,0.070192,9.753210,0,0,0,0,0,0,0.00
18921,19337838,0,0,0,-0.117433,-0.011166,9.753301,0,0,0,0,0,0,0.00
18926,19337878,0,0,0,-0.093376,-0.020628,9.762725,0,0,0,0,0,0,0.00
18930,19337917,0,0,0,-0.112564,0.003219,9.772423,0,0,0,0,0,0,0.00
18935,19337957,0,0,0,-0.112725,0.022367,9.762802,0,0,0,0,0,0,0.00
18939,19337997,0,0,0,-0.108083,0.046324,9.757934,0,0,0,0,0,0,0.00
18943,19338036,0,0,0,-0.103353,0.075068,9.767443,0,0,0,0,0,0,0.00
18947,19338066,0,0,0,-0.127534,0.103680,9.753195,0,0,0,0,0,0,0.00
18951,19338106,0,0,0,-0.141728,0.074891,9.758143,0,0,0,0,0,0,0.00
18956,19338146,0,0,0,-0.122555,0.070192,9.758005,0,0,0,0,0,0,0.00
18960,19338185,0,0,0,-0.122549,0.036683,9.738877,0,0,0,0,0,0,0.00
18964,19338225,0,0,0,-0.141349,0.007872,9.767838,0,0,0,0,0,0,0.00
18969,19338265,0,0,0,-0.103040,-0.001525,9.762768,0,0,0,0,0,0,0.00
18973,19338304,0,0,0,-0.136372,-0.025616,9.772650,0,0,0,0,0,0,0.00
18977,19338344,0,0,0,-0.069708,-0.001369,9.738538,0,0,0,0,0,0,0.00
18982,19338384,0,0,0,-0.117483,0.031918,9.772414,0,0,0,0,0,0,0.00
18986,19338423,0,0,0,-0.103237,0.041559,9.762700,0,0,0,0,0,0,0.00
18991,19338463,0,0,0,-0.122380,0.055831,9.772413,0,0,0,0,0,0,0.00
18995,19338503,0,0,0,-0.108251,0.075047,9.753094,0,0,0,0,0,0,0.00
18999,19338543,0,0,0,-0.127081,0.060596,9.786828,0,0,0,0,0,0,0.00
19004,19338582,0,0,0,-0.127374,0.060596,9.748467,0,0,0,0,0,0,0.00
19008,19338622,0,0,0,-0.131986,0.046213,9.762911,0,0,0,0,0,0,0.00
19013,19338662,0,0,0,-0.108032,0.027176,9.753169,0,0,0,0,0,0,0.00
19016,19338691,0,0,0,-0.108098,0.017602,9.738798,0,0,0,0,0,0,0.00
19020,19338731,0,0,0,-0.117608,0.003196,9.738894,0,0,0,0,0,0,0.00
19025,19338771,0,0,0,-0.107879,-0.006333,9.753222,0,0,0,0,0,0,0.00
19029,19338811,0,0,0,-0.122352,0.017535,9.753292,0,0,0,0,0,0,0.00
19034,19338850,0,0,0,-0.088720,0.032051,9.776992,0,0,0,0,0,0,0.00
19038,19338890,0,0,0,-0.122285,0.051044,9.782010,0,0,0,0,0,0,0.00
19042,19338930,0,0,0,-0.122549,0.060618,9.753225,0,0,0,0,0,0,0.00
19047,19338969,0,0,0,-0.141501,0.065317,9.782134,0,0,0,0,0,0,0.00
19051,19339009,0,0,0,-0.112893,0.051089,9.757962,0,0,0,0,0,0,0.00
19055,19339038,-0.126969,0.062183,9.764700,0,0,0,0.142998,-0.933192,-0.576912,0.265978,0.661426,-171.609553,28.30
19060,19339088,0,0,0,-0.141576,0.041382,9.758196,0,0,0,0,0,0,0.00
19064,19339128,0,0,0,-0.108054,0.008027,9.738813,0,0,0,0,0,0,0.00
19069,19339168,0,0,0,-0.112902,0.012793,9.734047,0,0,0,0,0,0,0.00
19073,19339207,0,0,0,-0.108062,0.017602,9.743593,0,0,0,0,0,0,0.00
19077,19339238,-0.109989,0.015877,9.737879,0,0,0,0.142531,-0.934167,-0.578930,0.260237,0.662186,-171.586569,28.30
19082,19339287,0,0,0,-0.093602,0.036817,9.767430,0,0,0,0,0,0,0.00
19085,19339317,0,0,0,-0.122409,0.070192,9.777185,0,0,0,0,0,0,0.00
19090,19339356,0,0,0,-0.117607,0.051066,9.767589,0,0,0,0,0,0,0.00
19098,19339436,0,0,0,-0.136782,0.031829,9.753380,0,0,0,0,0,0,0.00
19103,19339475,0,0,0,-0.141613,0.041382,9.753401,0,0,0,0,0,0,0.00
19107,19339515,0,0,0,-0.151247,0.046124,9.748671,0,0,0,0,0,0,0.00
19110,19339545,0,0,0,-0.131934,0.027065,9.758146,0,0,0,0,0,0,0.00
19116,19339594,0,0,0,-0.112946,0.022367,9.734032,0,0,0,0,0,0,0.00
19124,19339664,0,0,0,-0.103442,0.046346,9.738717,0,0,0,0,0,0,0.00
19128,19339704,0,0,0,-0.112805,0.031940,9.757993,0,0,0,0,0,0,0.00
19132,19339743,0,0,0,-0.093624,0.041604,9.767423,0,0,0,0,0,0,0.00
19137,19339783,0,0,0,-0.112696,0.031940,9.772378,0,0,0,0,0,0,0.00
19141,19339823,0,0,0,-0.122322,0.027109,9.762868,0,0,0,0,0,0,0.00
19146,19339862,0,0,0,-0.136788,0.041404,9.758160,0,0,0,0,0,0,0.00
19150,19339902,0,0,0,-0.132000,0.041427,9.758123,0,0,0,0,0,0,0.00
19154,19339942,0,0,0,-0.088999,0.036839,9.743419,0,0,0,0,0,0,0.00
19159,19339981,0,0,0,-0.098428,0.036795,9.762671,0,0,0,0,0,0,0.00
19163,19340021,0,0,0,-0.131956,0.031852,9.758139,0,0,0,0,0,0,0.00
19168,19340061,0,0,0,-0.122432,0.027109,9.748483,0,0,0,0,0,0,0.00
19171,19340091,0,0,0,-0.117557,0.031918,9.762824,0,0,0,0,0,0,0.00
19175,19340130,0,0,0,-0.127169,0.031874,9.758102,0,0,0,0,0,0,0.00
19180,19340170,0,0,0,-0.117535,0.027131,9.762832,0,0,0,0,0,0,0.00
19184,19340210,0,0,0,-0.117388,0.027131,9.782012,0,0,0,0,0,0,0.00
19189,19340249,0,0,0,-0.112901,0.036728,9.748395,0,0,0,0,0,0,0.00
19193,19340289,0,0,0,-0.136649,0.027042,9.767773,0,0,0,0,0,0,0.00
19197,19340329,0,0,0,-0.112864,0.036728,9.753190,0,0,0,0,0,0,0.00
19202,19340369,0,0,0,-0.103317,0.051133,9.757890,0,0,0,0,0,0,0.00
19206,19340408,0,0,0,-0.112827,0.036728,9.757985,0,0,0,0,0,0,0.00
19210,19340438,-0.116309,0.038830,9.748077,0,0,0,0.141528,-0.934183,-0.577937,0.263922,0.661714,-171.447908,28.30
19215,19340488,0,0,0,-0.141547,0.027020,9.753424,0,0,0,0,0,0,0.00
19219,19340527,0,0,0,-0.093500,0.022455,9.772247,0,0,0,0,0,0,0.00
19224,19340567,0,0,0,-0.117432,0.036705,9.781997,0,0,0,0,0,0,0.00
19228,19340607,0,0,0,-0.146254,0.041360,9.772617,0,0,0,0,0,0,0.00
19232,19340638,-0.124672,0.036560,9.768166,0,0,0,0.142060,-0.933142,-0.581427,0.262952,0.657944,-171.425998,28.30
19237,19340686,0,0,0,-0.155800,0.026954,9.767918,0,0,0,0,0,0,0.00
19240,19340716,0,0,0,-0.108047,0.046324,9.762729,0,0,0,0,0,0,0.00
19245,19340756,0,0,0,-0.117637,0.041492,9.758014,0,0,0,0,0,0,0.00
19253,19340835,0,0,0,-0.103245,0.027198,9.753133,0,0,0,0,0,0,0.00
19258,19340875,0,0,0,-0.093860,0.036817,9.733865,0,0,0,0,0,0,0.00
19262,19340914,0,0,0,-0.126920,0.017513,9.782100,0,0,0,0,0,0,0.00
19265,19340944,0,0,0,-0.122102,0.027109,9.791638,0,0,0,0,0,0,0.00
19271,19340994,0,0,0,-0.103215,0.036772,9.762708,0,0,0,0,0,0,0.00
19279,19341063,0,0,0,-0.103098,0.027198,9.772313,0,0,0,0,0,0,0.00
19283,19341103,0,0,0,-0.117644,0.027131,9.748446,0,0,0,0,0,0,0.00
19287,19341143,0,0,0,-0.113026,0.055876,9.743570,0,0,0,0,0,0,0.00
19292,19341182,0,0,0,-0.136847,0.046190,9.753357,0,0,0,0,0,0,0.00
19296,19341222,0,0,0,-0.108106,0.027176,9.743579,0,0,0,0,0,0,0.00
19301,19341262,0,0,0,-0.117637,0.041492,9.758014,0,0,0,0,0,0,0.00
19305,19341301,0,0,0,-0.098648,0.036795,9.733901,0,0,0,0,0,0,0.00
19309,19341341,0,0,0,-0.141364,0.027020,9.777399,0,0,0,0,0,0,0.00
19314,19341381,0,0,0,-0.131883,0.031852,9.767729,0,0,0,0,0,0,0.00
19318,19341420,0,0,0,-0.117505,0.036705,9.772407,0,0,0,0,0,0,0.00
19323,19341460,0,0,0,-0.126971,0.036661,9.786865,0,0,0,0,0,0,0.00
19326,19341490,0,0,0,-0.112644,0.036728,9.781960,0,0,0,0,0,0,0.00
19330,19341530,0,0,0,-0.146422,0.046146,9.753429,0,0,0,0,0,0,0.00
19335,19341569,0,0,0,-0.127147,0.051023,9.772457,0,0,0,0,0,0,0.00
19339,19341609,0,0,0,-0.127411,0.060596,9.743672,0,0,0,0,0,0,0.00
19344,19341649,0,0,0,-0.088924,0.060774,9.767357,0,0,0,0,0,0,0.00
19348,19341688,0,0,0,-0.117710,0.041492,9.748424,0,0,0,0,0,0,0.00
19352,19341728,0,0,0,-0.107907,0.031962,9.772342,0,0,0,0,0,0,0.00
19357,19341768,0,0,0,-0.112710,0.027154,9.767591,0,0,0,0,0,0,0.00
19361,19341807,0,0,0,-0.127095,0.031874,9.767693,0,0,0,0,0,0,0.00
19365,19341838,-0.120716,0.030682,9.770082,0,0,0,0.141555,-0.933654,-0.580435,0.260760,0.658399,-171.286578,28.30
19370,19341887,0,0,0,-0.141393,0.041382,9.782171,0,0,0,0,0,0,0.00
19374,19341927,0,0,0,-0.122307,0.031896,9.767655,0,0,0,0,0,0,0.00
19379,19341966,0,0,0,-0.122344,0.031896,9.762860,0,0,0,0,0,0,0.00
19383,19342006,0,0,0,-0.112740,0.041515,9.772363,0,0,0,0,0,0,0.00
19387,19342046,0,0,0,-0.098662,0.055943,9.743462,0,0,0,0,0,0,0.00
19392,19342085,0,0,0,-0.132022,0.046213,9.758116,0,0,0,0,0,0,0.00
19395,19342115,0,0,0,-0.084159,0.041648,9.752965,0,0,0,0,0,0,0.00
19400,19342155,0,0,0,-0.117513,0.022344,9.762838,0,0,0,0,0,0,0.00
19408,19342234,0,0,0,-0.122080,0.022322,9.791645,0,0,0,0,0,0,0.00
19413,19342274,0,0,0,-0.103098,0.027198,9.772313,0,0,0,0,0,0,0.00
19417,19342314,0,0,0,-0.117425,0.003196,9.762869,0,0,0,0,0,0,0.00
19420,19342343,0,0,0,-0.150961,0.055697,9.791812,0,0,0,0,0,0,0.00
19426,19342393,0,0,0,-0.131986,0.046213,9.762911,0,0,0,0,0,0,0.00
19430,19342433,0,0,0,-0.113062,0.055876,9.738775,0,0,0,0,0,0,0.00
19435,19342472,0,0,0,-0.103406,0.046346,9.743512,0,0,0,0,0,0,0.00
19438,19342502,0,0,0,-0.117497,0.027131,9.767627,0,0,0,0,0,0,0.00
19442,19342542,0,0,0,-0.098310,0.027221,9.772277,0,0,0,0,0,0,0.00
19447,19342581,0,0,0,-0.103259,0.022410,9.748344,0,0,0,0,0,0,0.00
19451,19342621,0,0,0,-0.112608,0.012793,9.772408,0,0,0,0,0,0,0.00
19456,19342661,0,0,0,-0.126920,0.017513,9.782100,0,0,0,0,0,0,0.00
19460,19342701,0,0,0,-0.136539,0.027042,9.782158,0,0,0,0,0,0,0.00
19464,19342740,0,0,0,-0.151145,0.031762,9.753489,0,0,0,0,0,0,0.00
19469,19342780,0,0,0,-0.117644,0.051066,9.762794,0,0,0,0,0,0,0.00
19473,19342820,0,0,0,-0.117732,0.046279,9.748416,0,0,0,0,0,0,0.00
19478,19342859,0,0,0,-0.103354,0.051133,9.753095,0,0,0,0,0,0,0.00
19482,19342899,0,0,0,-0.098478,0.055943,9.767437,0,0,0,0,0,0,0.00
19486,19342939,0,0,0,-0.117439,0.046279,9.786777,0,0,0,0,0,0,0.00
19491,19342978,0,0,0,-0.088844,0.027265,9.757819,0,0,0,0,0,0,0.00
19495,19343018,0,0,0,-0.136510,0.036616,9.791733,0,0,0,0,0,0,0.00
19500,19343058,0,0,0,-0.117527,0.041492,9.772399,0,0,0,0,0,0,0.00
19503,19343088,0,0,0,-0.107995,0.041525,9.767545,0,0,0,0,0,0,0.00
19507,19343127,0,0,0,-0.136759,0.041391,9.762968,0,0,0,0,0,0,0.00
19512,19343167,0,0,0,-0.122300,0.012736,9.758108,0,0,0,0,0,0,0.00
19516,19343207,0,0,0,-0.151108,0.022177,9.753516,0,0,0,0,0,0,0.00
19521,19343246,0,0,0,-0.117644,0.041480,9.758027,0,0,0,0,0,0,0.00
19525,19343286,0,0,0,-0.089020,0.055975,9.752993,0,0,0,0,0,0,0.00
19529,19343326,0,0,0,-0.108054,0.046312,9.762742,0,0,0,0,0,0,0.00
19534,19343365,0,0,0,-0.112790,0.051077,9.772361,0,0,0,0,0,0,0.00
19538,19343405,0,0,0,-0.122336,0.036672,9.767661,0,0,0,0,0,0,0.00
19542,19343445,0,0,0,-0.117542,0.027119,9.762845,0,0,0,0,0,0,0.00
19547,19343485,0,0,0,-0.141195,0.012648,9.791820,0,0,0,0,0,0,0.00
19551,19343524,0,0,0,-0.107907,0.022377,9.767574,0,0,0,0,0,0,0.00
19556,19343564,0,0,0,-0.146136,0.022200,9.777455,0,0,0,0,0,0,0.00
19560,19343604,0,0,0,-0.107995,0.041525,9.767545,0,0,0,0,0,0,0.00
19563,19343633,0,0,0,-0.103185,0.036760,9.767516,0,0,0,0,0,0,0.00
19569,19343683,0,0,0,-0.113221,0.065438,9.724388,0,0,0,0,0,0,0.00
19572,19343713,0,0,0,-0.108310,0.070248,9.743525,0,0,0,0,0,0,0.00
19577,19343752,0,0,0,-0.122549,0.051032,9.748458,0,0,0,0,0,0,0.00
19581,19343792,0,0,0,-0.098705,0.055931,9.738680,0,0,0,0,0,0,0.00
19585,19343832,0,0,0,-0.136796,0.017456,9.743825,0,0,0,0,0,0,0.00
19590,19343872,0,0,0,-0.117403,0.012758,9.772457,0,0,0,0,0,0,0.00
19594,19343911,0,0,0,-0.146166,0.012626,9.767880,0,0,0,0,0,0,0.00
19599,19343951,0,0,0,-0.126926,0.017501,9.782113,0,0,0,0,0,0,0.00
19603,19343991,0,0,0,-0.117535,0.041480,9.772412,0,0,0,0,0,0,0.00
19607,19344030,0,0,0,-0.127213,0.031862,9.753321,0,0,0,0,0,0,0.00
19612,19344070,0,0,0,-0.108003,0.027164,9.757977,0,0,0,0,0,0,0.00
19616,19344110,0,0,0,-0.112973,0.051077,9.748385,0,0,0,0,0,0,0.00
19619,19344139,0,0,0,-0.103302,0.046334,9.757911,0,0,0,0,0,0,0.00
19625,19344189,0,0,0,-0.122424,0.055820,9.767632,0,0,0,0,0,0,0.00
19629,19344229,0,0,0,-0.131913,0.012692,9.753386,0,0,0,0,0,0,0.00
19634,19344268,0,0,0,-0.112490,0.017568,9.791594,0,0,0,0,0,0,0.00
19637,19344298,0,0,0,-0.112761,0.012781,9.753241,0,0,0,0,0,0,0.00
19641,19344338,0,0,0,-0.136510,0.003095,9.772618,0,0,0,0,0,0,0.00
19646,19344378,0,0,0,-0.117557,0.022332,9.758057,0,0,0,0,0,0,0.00
19650,19344417,0,0,0,-0.150975,0.017389,9.767909,0,0,0,0,0,0,0.00
19655,19344457,0,0,0,-0.117813,0.046268,9.738839,0,0,0,0,0,0,0.00
19659,19344497,0,0,0,-0.136839,0.050965,9.758158,0,0,0,0,0,0,0.00
19663,19344536,0,0,0,-0.098704,0.079866,9.753027,0,0,0,0,0,0,0.00
19668,19344576,0,0,0,-0.122380,0.046246,9.767646,0,0,0,0,0,0,0.00
19672,19344616,0,0,0,-0.108150,0.051099,9.753144,0,0,0,0,0,0,0.00
19676,19344638,-0.108003,0.055044,9.753113,0,0,0,0.142571,-0.932623,-0.582919,0.260456,0.659702,-170.962558,28.32
19681,19344695,0,0,0,-0.107783,0.027164,9.786748,0,0,0,0,0,0,0.00
19685,19344735,0,0,0,-0.141305,0.012648,9.777434,0,0,0,0,0,0,0.00
19690,19344775,0,0,0,-0.122197,0.022310,9.777273,0,0,0,0,0,0,0.00
19694,19344814,0,0,0,-0.108062,0.031951,9.753175,0,0,0,0,0,0,0.00
19697,19344844,0,0,0,-0.136795,0.041391,9.758173,0,0,0,0,0,0,0.00
19703,19344894,0,0,0,-0.132184,0.055776,9.743730,0,0,0,0,0,0,0.00
19706,19344923,0,0,0,-0.127336,0.074946,9.762843,0,0,0,0,0,0,0.00
19711,19344963,0,0,0,-0.089077,0.060762,9.748190,0,0,0,0,0,0,0.00
19719,19345043,0,0,0,-0.117579,0.027119,9.758050,0,0,0,0,0,0,0.00
19724,19345082,0,0,0,-0.141400,0.017434,9.767837,0,0,0,0,0,0,0.00
19728,19345122,0,0,0,-0.088843,0.041614,9.767400,0,0,0,0,0,0,0.00
19733,19345162,0,0,0,-0.131788,0.017479,9.772559,0,0,0,0,0,0,0.00
19736,19345191,0,0,0,-0.122403,0.027097,9.753291,0,0,0,0,0,0,0.00
19740,19345231,0,0,0,-0.141577,0.031796,9.753429,0,0,0,0,0,0,0.00
19746,19345281,0,0,0,-0.112915,0.046290,9.753188,0,0,0,0,0,0,0.00
19749,19345310,0,0,0,-0.117740,0.046268,9.748429,0,0,0,0,0,0,0.00
19754,19345350,0,0,0,-0.098786,0.041570,9.719522,0,0,0,0,0,0,0.00
19758,19345390,0,0,0,-0.103464,0.041547,9.733943,0,0,0,0,0,0,0.00
19762,19345430,0,0,0,-0.098369,0.022422,9.762707,0,0,0,0,0,0,0.00
19767,19345469,0,0,0,-0.103119,0.046334,9.781886,0,0,0,0,0,0,0.00
19771,19345509,0,0,0,-0.155690,0.041303,9.791883,0,0,0,0,0,0,0.00
19776,19345549,0,0,0,-0.131957,0.022266,9.753371,0,0,0,0,0,0,0.00
19780,19345588,0,0,0,-0.127007,0.027075,9.777304,0,0,0,0,0,0,0.00
19784,19345628,0,0,0,-0.103230,0.022399,9.753153,0,0,0,0,0,0,0.00
19789,19345668,0,0,0,-0.127102,0.031862,9.767706,0,0,0,0,0,0,0.00
19793,19345707,0,0,0,-0.117469,0.027119,9.772435,0,0,0,0,0,0,0.00
19797,19345738,-0.113287,0.028904,9.759855,0,0,0,0.143022,-0.932165,-0.579404,0.256176,0.662415,-170.835769,28.32
19802,19345787,0,0,0,-0.103347,0.031973,9.743548,0,0,0,0,0,0,0.00
19806,19345826,0,0,0,-0.122263,0.036672,9.777251,0,0,0,0,0,0,0.00
19811,19345866,0,0,0,-0.098522,0.055931,9.762655,0,0,0,0,0,0,0.00
19814,19345896,0,0,0,-0.136810,0.036605,9.753386,0,0,0,0,0,0,0.00
19818,19345936,0,0,0,-0.117461,0.017545,9.767654,0,0,0,0,0,0,0.00
19823,19345975,0,0,0,-0.127272,0.012714,9.734170,0,0,0,0,0,0,0.00
19827,19346015,0,0,0,-0.136847,0.012670,9.734242,0,0,0,0,0,0,0.00
19832,19346055,0,0,0,-0.103456,0.031973,9.729163,0,0,0,0,0,0,0.00
19840,19346134,0,0,0,-0.103251,0.051121,9.767493,0,0,0,0,0,0,0.00
19845,19346174,0,0,0,-0.127146,0.041436,9.767691,0,0,0,0,0,0,0.00
19849,19346213,0,0,0,-0.079408,0.056020,9.757714,0,0,0,0,0,0,0.00
19852,19346243,0,0,0,-0.103302,0.046334,9.757911,0,0,0,0,0,0,0.00
19857,19346283,0,0,0,-0.127183,0.041436,9.762896,0,0,0,0,0,0,0.00
19861,19346323,0,0,0,-0.127146,0.041436,9.767691,0,0,0,0,0,0,0.00
19866,19346362,0,0,0,-0.103119,0.022399,9.767538,0,0,0,0,0,0,0.00
19870,19346402,0,0,0,-0.117542,0.027119,9.762845,0,0,0,0,0,0,0.00
19874,19346442,0,0,0,-0.131935,0.017479,9.753379,0,0,0,0,0,0,0.00
19879,19346481,0,0,0,-0.136729,0.027030,9.758196,0,0,0,0,0,0,0.00
19883,19346521,0,0,0,-0.117608,0.041480,9.762822,0,0,0,0,0,0,0.00
19888,19346561,0,0,0,-0.108164,0.046312,9.748357,0,0,0,0,0,0,0.00
19892,19346600,0,0,0,-0.127358,0.055798,9.748488,0,0,0,0,0,0,0.00
19896,19346640,0,0,0,-0.098522,0.055931,9.762655,0,0,0,0,0,0,0.00
19901,19346680,0,0,0,-0.131934,0.041414,9.767727,0,0,0,0,0,0,0.00
19905,19346720,0,0,0,-0.098632,0.055931,9.748270,0,0,0,0,0,0,0.00
19910,19346759,0,0,0,-0.112695,0.046290,9.781959,0,0,0,0,0,0,0.00
19913,19346789,0,0,0,-0.136737,0.036605,9.762976,0,0,0,0,0,0,0.00
19917,19346829,0,0,0,-0.122271,0.022310,9.767683,0,0,0,0,0,0,0.00
19922,19346868,0,0,0,-0.117769,0.036694,9.738854,0,0,0,0,0,0,0.00
19926,19346908,0,0,0,-0.122359,0.017523,9.753305,0,0,0,0,0,0,0.00
19931,19346948,0,0,0,-0.127080,0.027075,9.767714,0,0,0,0,0,0,0.00
19935,19346988,0,0,0,-0.117586,0.036694,9.762830,0,0,0,0,0,0,0.00
19939,19347027,0,0,0,-0.112929,0.041503,9.748401,0,0,0,0,0,0,0.00
19944,19347067,0,0,0,-0.112804,0.046290,9.767573,0,0,0,0,0,0,0.00
19948,19347107,0,0,0,-0.103354,0.041547,9.748328,0,0,0,0,0,0,0.00
19953,19347146,0,0,0,-0.107959,0.041525,9.772340,0,0,0,0,0,0,0.00
19957,19347186,0,0,0,-0.127146,0.041436,9.767691,0,0,0,0,0,0,0.00
19961,19347226,0,0,0,-0.108076,0.027164,9.748387,0,0,0,0,0,0,0.00
19966,19347265,0,0,0,-0.127286,0.031862,9.743731,0,0,0,0,0,0,0.00
19970,19347305,0,0,0,-0.132045,0.017479,9.738994,0,0,0,0,0,0,0.00
19974,19347345,0,0,0,-0.112783,0.017568,9.753233,0,0,0,0,0,0,0.00
19979,19347384,0,0,0,-0.117674,0.031906,9.748452,0,0,0,0,0,0,0.00
19983,19347424,0,0,0,-0.122278,0.031884,9.772464,0,0,0,0,0,0,0.00
19988,19347464,0,0,0,-0.093669,0.041592,9.762641,0,0,0,0,0,0,0.00
19991,19347494,0,0,0,-0.117476,0.036694,9.777215,0,0,0,0,0,0,0.00
19995,19347533,0,0,0,-0.107871,0.022377,9.772369,0,0,0,0,0,0,0.00
20000,19347573,0,0,0,-0.131971,0.041414,9.762932,0,0,0,0,0,0,0.00
20004,19347613,0,0,0,-0.136876,0.050965,9.753363,0,0,0,0,0,0,0.00
20009,19347652,0,0,0,-0.131898,0.041414,9.772522,0,0,0,0,0,0,0.00
20013,19347692,0,0,0,-0.117711,0.031906,9.743657,0,0,0,0,0,0,0.00
20017,19347732,0,0,0,-0.117879,0.036694,9.724469,0,0,0,0,0,0,0.00
20022,19347771,0,0,0,-0.122352,0.031884,9.762874,0,0,0,0,0,0,0.00
20026,19347811,0,0,0,-0.083924,0.012914,9.767408,0,0,0,0,0,0,0.00
20029,19347841,0,0,0,-0.112710,0.017568,9.762823,0,0,0,0,0,0,0.00
20035,19347891,0,0,0,-0.131912,0.036628,9.767735,0,0,0,0,0,0,0.00
20039,19347930,0,0,0,-0.093691,0.046379,9.762633,0,0,0,0,0,0,0.00
20044,19347970,0,0,0,-0.122212,0.041458,9.786834,0,0,0,0,0,0,0.00
20048,19348010,0,0,0,-0.103484,0.070270,9.748283,0,0,0,0,0,0,0.00
20051,19348039,0,0,0,-0.127278,0.046224,9.753298,0,0,0,0,0,0,0.00
20057,19348089,0,0,0,-0.113047,0.051077,9.738795,0,0,0,0,0,0,0.00
20060,19348119,0,0,0,-0.084335,0.046423,9.733790,0,0,0,0,0,0,0.00
20065,19348158,0,0,0,-0.141650,0.031796,9.743839,0,0,0,0,0,0,0.00
20069,19348198,0,0,0,-0.122396,0.017523,9.748510,0,0,0,0,0,0,0.00
20073,19348238,0,0,0,-0.108025,0.031951,9.757970,0,0,0,0,0,0,0.00
20078,19348278,0,0,0,-0.127131,0.022288,9.758130,0,0,0,0,0,0,0.00
20082,19348317,0,0,0,-0.127095,0.022288,9.762925,0,0,0,0,0,0,0.00
20087,19348357,0,0,0,-0.136751,0.031817,9.758188,0,0,0,0,0,0,0.00
20091,19348397,0,0,0,-0.117688,0.051054,9.758012,0,0,0,0,0,0,0.00
20095,19348436,0,0,0,-0.112965,0.065438,9.757954,0,0,0,0,0,0,0.00
20100,19348476,0,0,0,-0.117666,0.046268,9.758019,0,0,0,0,0,0,0.00
20104,19348516,0,0,0,-0.112761,0.036716,9.767589,0,0,0,0,0,0,0.00
20107,19348546,0,0,0,-0.113076,0.041503,9.729220,0,0,0,0,0,0,0.00
20113,19348595,0,0,0,-0.136671,0.022243,9.762998,0,0,0,0,0,0,0.00
20117,19348635,0,0,0,-0.098516,0.022422,9.743526,0,0,0,0,0,0,0.00
20122,19348675,0,0,0,-0.136678,0.031817,9.767778,0,0,0,0,0,0,0.00
20125,19348704,0,0,0,-0.112731,0.046290,9.777164,0,0,0,0,0,0,0.00
20129,19348744,0,0,0,-0.107878,0.031951,9.777150,0,0,0,0,0,0,0.00
20134,19348784,0,0,0,-0.127183,0.041436,9.762896,0,0,0,0,0,0,0.00
20138,19348823,0,0,0,-0.136839,0.050965,9.758158,0,0,0,0,0,0,0.00
20143,19348863,0,0,0,-0.136941,0.065327,9.753341,0,0,0,0,0,0,0.00
20147,19348903,0,0,0,-0.127352,0.046224,9.743708,0,0,0,0,0,0,0.00
20151,19348942,0,0,0,-0.117762,0.051054,9.748422,0,0,0,0,0,0,0.00
20156,19348982,0,0,0,-0.117608,0.017545,9.748474,0,0,0,0,0,0,0.00
20160,19349022,0,0,0,-0.127014,0.036650,9.782084,0,0,0,0,0,0,0.00
20165,19349062,0,0,0,-0.084290,0.060784,9.748154,0,0,0,0,0,0,0.00
20169,19349101,0,0,0,-0.146042,0.017412,9.787053,0,0,0,0,0,0,0.00
20173,19349141,0,0,0,-0.098537,0.027208,9.743520,0,0,0,0,0,0,0.00
20178,19349181,0,0,0,-0.146195,0.026986,9.772654,0,0,0,0,0,0,0.00
20182,19349220,0,0,0,-0.093816,0.041592,9.743461,0,0,0,0,0,0,0.00
20187,19349260,0,0,0,-0.146144,0.031774,9.782236,0,0,0,0,0,0,0.00
20190,19349290,0,0,0,-0.112906,0.060652,9.762756,0,0,0,0,0,0,0.00
20194,19349329,0,0,0,-0.132037,0.055776,9.762910,0,0,0,0,0,0,0.00
20199,19349369,0,0,0,-0.141898,0.070092,9.734189,0,0,0,0,0,0,0.00
20203,19349409,0,0,0,-0.127197,0.036650,9.758108,0,0,0,0,0,0,0.00
20208,19349449,0,0,0,-0.103208,0.017612,9.753160,0,0,0,0,0,0,0.00
20212,19349488,0,0,0,-0.108032,0.017590,9.748402,0,0,0,0,0,0,0.00
20216,19349528,0,0,0,-0.112615,0.012781,9.772421,0,0,0,0,0,0,0.00
20221,19349568,0,0,0,-0.069708,0.012980,9.748118,0,0,0,0,0,0,0.00
20225,19349607,0,0,0,-0.131561,0.007905,9.796550,0,0,0,0,0,0,0.00
20229,19349638,-0.107733,0.019130,9.772875,0,0,0,0.143024,-0.933667,-0.578920,0.255358,0.652908,-170.387328,28.32
20234,19349687,0,0,0,-0.136568,0.055753,9.796512,0,0,0,0,0,0,0.00
20238,19349726,0,0,0,-0.112812,0.055864,9.772354,0,0,0,0,0,0,0.00
20243,19349766,0,0,0,-0.117945,0.051054,9.724446,0,0,0,0,0,0,0.00
20247,19349806,0,0,0,-0.132074,0.031840,9.743767,0,0,0,0,0,0,0.00
20251,19349845,0,0,0,-0.122499,0.031884,9.743693,0,0,0,0,0,0,0.00
20256,19349885,0,0,0,-0.127344,0.036650,9.738928,0,0,0,0,0,0,0.00
20259,19349915,0,0,0,-0.117806,0.036694,9.734059,0,0,0,0,0,0,0.00
20264,19349955,0,0,0,-0.131759,0.003118,9.767787,0,0,0,0,0,0,0.00
20272,19350034,0,0,0,-0.093544,0.022444,9.767466,0,0,0,0,0,0,0.00
20277,19350074,0,0,0,-0.103097,0.017612,9.767546,0,0,0,0,0,0,0.00
20281,19350113,0,0,0,-0.117410,0.022332,9.777237,0,0,0,0,0,0,0.00
20284,19350143,0,0,0,-0.117842,0.060629,9.743612,0,0,0,0,0,0,0.00
20290,19350193,0,0,0,-0.146384,0.060496,9.767806,0,0,0,0,0,0,0.00
20294,19350233,0,0,0,-0.112935,0.075013,9.767529,0,0,0,0,0,0,0.00
20299,19350272,0,0,0,-0.122424,0.055820,9.767632,0,0,0,0,0,0,0.00
20302,19350302,0,0,0,-0.136876,0.050965,9.753363,0,0,0,0,0,0,0.00
20306,19350342,0,0,0,-0.132000,0.055776,9.767705,0,0,0,0,0,0,0.00
20311,19350381,0,0,0,-0.103310,0.031973,9.748343,0,0,0,0,0,0,0.00
20315,19350421,0,0,0,-0.112857,0.017568,9.743643,0,0,0,0,0,0,0.00
20320,19350461,0,0,0,-0.093684,0.012870,9.743505,0,0,0,0,0,0,0.00
20324,19350500,0,0,0,-0.126985,0.022288,9.777310,0,0,0,0,0,0,0.00
20328,19350540,0,0,0,-0.088939,0.046401,9.757802,0,0,0,0,0,0,0.00
20333,19350580,0,0,0,-0.131905,0.050988,9.777302,0,0,0,0,0,0,0.00
20337,19350620,0,0,0,-0.117805,0.060629,9.748407,0,0,0,0,0,0,0.00
20342,19350659,0,0,0,-0.103288,0.051121,9.762698,0,0,0,0,0,0,0.00
20346,19350699,0,0,0,-0.122592,0.060607,9.748444,0,0,0,0,0,0,0.00
20350,19350739,0,0,0,-0.141635,0.036583,9.748627,0,0,0,0,0,0,0.00
20355,19350778,0,0,0,-0.122461,0.031884,9.748488,0,0,0,0,0,0,0.00
20359,19350818,0,0,0,-0.122417,0.022310,9.748503,0,0,0,0,0,0,0.00
20364,19350858,0,0,0,-0.122403,0.027097,9.753291,0,0,0,0,0,0,0.00
20367,19350887,0,0,0,-0.084138,0.003339,9.733858,0,0,0,0,0,0,0.00
20371,19350927,0,0,0,-0.131840,0.012692,9.762977,0,0,0,0,0,0,0.00
20376,19350967,0,0,0,-0.107929,0.027164,9.767568,0,0,0,0,0,0,0.00
20380,19351007,0,0,0,-0.112842,0.046290,9.762778,0,0,0,0,0,0,0.00
20385,19351046,0,0,0,-0.103404,0.060696,9.753094,0,0,0,0,0,0,0.00
20389,19351086,0,0,0,-0.141656,0.065305,9.762967,0,0,0,0,0,0,0.00
20393,19351126,0,0,0,-0.122469,0.041458,9.753268,0,0,0,0,0,0,0.00
20398,19351165,0,0,0,-0.141583,0.041369,9.758209,0,0,0,0,0,0,0.00
20402,19351205,0,0,0,-0.112959,0.031929,9.738826,0,0,0,0,0,0,0.00
20406,19351245,0,0,0,-0.122616,0.017523,9.719740,0,0,0,0,0,0,0.00
20411,19351284,0,0,0,-0.117850,0.022332,9.719696,0,0,0,0,0,0,0.00
20415,19351324,0,0,0,-0.112805,-0.001580,9.738878,0,0,0,0,0,0,0.00
20420,19351364,0,0,0,-0.112967,0.017568,9.729258,0,0,0,0,0,0,0.00
20424,19351403,0,0,0,-0.127058,0.022288,9.767720,0,0,0,0,0,0,0.00
20427,19351433,0,0,0,-0.103251,0.051121,9.767493,0,0,0,0,0,0,0.00
20433,19351483,0,0,0,-0.112731,0.046290,9.777164,0,0,0,0,0,0,0.00
20436,19351513,0,0,0,-0.136889,0.070114,9.762923,0,0,0,0,0,0,0.00
20441,19351552,0,0,0,-0.117870,0.074990,9.748384,0,0,0,0,0,0,0.00
20445,19351592,0,0,0,-0.156041,0.070025,9.763068,0,0,0,0,0,0,0.00
20449,19351632,0,0,0,-0.098596,0.031996,9.738717,0,0,0,0,0,0,0.00
20454,19351671,0,0,0,-0.103061,0.017612,9.772341,0,0,0,0,0,0,0.00
20458,19351711,0,0,0,-0.107907,0.022377,9.767574,0,0,0,0,0,0,0.00
20463,19351751,0,0,0,-0.098472,0.012848,9.743542,0,0,0,0,0,0,0.00
20467,19351791,0,0,0,-0.132023,0.012692,9.739001,0,0,0,0,0,0,0.00
20471,19351830,0,0,0,-0.112959,0.031929,9.738826,0,0,0,0,0,0,0.00
20476,19351870,0,0,0,-0.141437,0.041369,9.777390,0,0,0,0,0,0,0.00
20480,19351910,0,0,0,-0.122358,0.041458,9.767653,0,0,0,0,0,0,0.00
20483,19351939,0,0,0,-0.122469,0.041458,9.753268,0,0,0,0,0,0,0.00
20489,19351989,0,0,0,-0.117908,0.074990,9.743589,0,0,0,0,0,0,0.00
20493,19352029,0,0,0,-0.117593,0.046268,9.767610,0,0,0,0,0,0,0.00
20498,19352068,0,0,0,-0.098742,0.031996,9.719537,0,0,0,0,0,0,0.00
20502,19352108,0,0,0,-0.112849,0.031929,9.753211,0,0,0,0,0,0,0.00
20505,19352138,0,0,0,-0.122403,0.027097,9.753291,0,0,0,0,0,0,0.00
20510,19352178,0,0,0,-0.093559,0.017656,9.762678,0,0,0,0,0,0,0.00
20514,19352217,0,0,0,-0.122190,0.012736,9.772493,0,0,0,0,0,0,0.00
20519,19352257,0,0,0,-0.084012,0.032062,9.767379,0,0,0,0,0,0,0.00
20523,19352297,0,0,0,-0.136480,0.036605,9.796541,0,0,0,0,0,0,0.00
20527,19352336,0,0,0,-0.103288,0.051121,9.762698,0,0,0,0,0,0,0.00
20532,19352376,0,0,0,-0.151063,0.036538,9.767879,0,0,0,0,0,0,0.00
20536,19352416,0,0,0,-0.098779,0.055931,9.729090,0,0,0,0,0,0,0.00
20541,19352455,0,0,0,-0.127344,0.036650,9.738928,0,0,0,0,0,0,0.00
20545,19352495,0,0,0,-0.117996,0.046268,9.714864,0,0,0,0,0,0,0.00
20549,19352535,0,0,0,-0.127330,0.017501,9.729367,0,0,0,0,0,0,0.00
20554,19352574,0,0,0,-0.088903,-0.001470,9.733902,0,0,0,0,0,0,0.00
20558,19352614,0,0,0,-0.103134,-0.006324,9.748404,0,0,0,0,0,0,0.00
20561,19352644,0,0,0,-0.122352,0.007949,9.748526,0,0,0,0,0,0,0.00
20567,19352694,0,0,0,-0.112790,0.027142,9.758014,0,0,0,0,0,0,0.00
20570,19352723,0,0,0,-0.107937,0.036738,9.772347,0,0,0,0,0,0,0.00
20575,19352763,0,0,0,-0.136751,0.055753,9.772536,0,0,0,0,0,0,0.00
20579,19352803,0,0,0,-0.151150,0.079621,9.782197,0,0,0,0,0,0,0.00
20583,19352842,0,0,0,-0.146502,0.070070,9.758201,0,0,0,0,0,0,0.00
20588,19352882,0,0,0,-0.117848,0.070203,9.748392,0,0,0,0,0,0,0.00
20592,19352922,0,0,0,-0.117799,0.051054,9.743627,0,0,0,0,0,0,0.00
20597,19352961,0,0,0,-0.103347,0.031973,9.743548,0,0,0,0,0,0,0.00
20601,19353001,0,0,0,-0.112803,0.003186,9.743689,0,0,0,0,0,0,0.00
20605,19353041,0,0,0,-0.079194,-0.001446,9.753033,0,0,0,0,0,0,0.00
20610,19353081,0,0,0,-0.103184,-0.006345,9.743631,0,0,0,0,0,0,0.00
20614,19353120,0,0,0,-0.131991,0.027033,9.753387,0,0,0,0,0,0,0.00
20619,19353160,0,0,0,-0.112841,0.027122,9.753242,0,0,0,0,0,0,0.00
20623,19353200,0,0,0,-0.136622,0.065307,9.796519,0,0,0,0,0,0,0.00
20626,19353229,0,0,0,-0.113256,0.070205,9.724403,0,0,0,0,0,0,0.00
20632,19353279,0,0,0,-0.156134,0.055643,9.743934,0,0,0,0,0,0,0.00
20635,19353309,0,0,0,-0.098929,0.070271,9.719500,0,0,0,0,0,0,0.00
20640,19353349,0,0,0,-0.146523,0.031753,9.734308,0,0,0,0,0,0,0.00
20644,19353388,0,0,0,-0.098644,0.031975,9.733945,0,0,0,0,0,0,0.00
20648,19353428,0,0,0,-0.103162,0.012804,9.757986,0,0,0,0,0,0,0.00
20653,19353468,0,0,0,-0.117525,0.012737,9.758095,0,0,0,0,0,0,0.00
20657,19353507,0,0,0,-0.107876,0.012782,9.767612,0,0,0,0,0,0,0.00
20662,19353547,0,0,0,-0.098322,0.017613,9.767532,0,0,0,0,0,0,0.00
20666,19353587,0,0,0,-0.136727,0.031796,9.763006,0,0,0,0,0,0,0.00
20670,19353626,0,0,0,-0.136799,0.055732,9.767764,0,0,0,0,0,0,0.00
20675,19353666,0,0,0,-0.151193,0.046091,9.758297,0,0,0,0,0,0,0.00
20679,19353706,0,0,0,-0.146653,0.060475,9.734263,0,0,0,0,0,0,0.00
20683,19353745,0,0,0,-0.118008,0.070182,9.729235,0,0,0,0,0,0,0.00
20688,19353785,0,0,0,-0.146536,0.050901,9.743868,0,0,0,0,0,0,0.00
20692,19353825,0,0,0,-0.098681,0.031975,9.729150,0,0,0,0,0,0,0.00
20697,19353865,0,0,0,-0.136669,0.003075,9.753461,0,0,0,0,0,0,0.00
20701,19353904,0,0,0,-0.079105,0.003342,9.767410,0,0,0,0,0,0,0.00
20704,19353934,0,0,0,-0.112481,-0.011175,9.777276,0,0,0,0,0,0,0.00
20709,19353974,0,0,0,-0.136441,0.017435,9.791799,0,0,0,0,0,0,0.00
20713,19354013,0,0,0,-0.107787,0.041505,9.796338,0,0,0,0,0,0,0.00
20718,19354053,0,0,0,-0.141492,0.050923,9.777397,0,0,0,0,0,0,0.00
20722,19354093,0,0,0,-0.127422,0.074925,9.753276,0,0,0,0,0,0,0.00
20726,19354132,0,0,0,-0.132452,0.055755,9.710186,0,0,0,0,0,0,0.00
20731,19354172,0,0,0,-0.122839,0.079735,9.729257,0,0,0,0,0,0,0.00
20735,19354212,0,0,0,-0.136975,0.046158,9.739008,0,0,0,0,0,0,0.00
20740,19354252,0,0,0,-0.098696,0.027188,9.724362,0,0,0,0,0,0,0.00
20744,19354291,0,0,0,-0.103169,-0.001557,9.748419,0,0,0,0,0,0,0.00
20748,19354331,0,0,0,-0.107803,-0.011153,9.762855,0,0,0,0,0,0,0.00
20753,19354371,0,0,0,-0.093454,0.008061,9.772306,0,0,0,0,0,0,0.00
20757,19354410,0,0,0,-0.102905,0.012804,9.791552,0,0,0,0,0,0,0.00
20760,19354440,0,0,0,-0.131931,0.046181,9.772537,0,0,0,0,0,0,0.00
20766,19354490,0,0,0,-0.136909,0.079668,9.767726,0,0,0,0,0,0,0.00
20770,19354529,0,0,0,-0.122794,0.094095,9.743620,0,0,0,0,0,0,0.00
20774,19354559,0,0,0,-0.132334,0.070116,9.734139,0,0,0,0,0,0,0.00
20778,19354599,0,0,0,-0.146624,0.070049,9.743838,0,0,0,0,0,0,0.00
20782,19354639,0,0,0,-0.098746,0.046336,9.729127,0,0,0,0,0,0,0.00
20787,19354678,0,0,0,-0.131948,0.017458,9.753402,0,0,0,0,0,0,0.00
20791,19354718,0,0,0,-0.098506,-0.006322,9.729210,0,0,0,0,0,0,0.00
20796,19354758,0,0,0,-0.117312,-0.001624,9.777298,0,0,0,0,0,0,0.00
20800,19354797,0,0,0,-0.098248,0.017613,9.777122,0,0,0,0,0,0,0.00
20804,19354837,0,0,0,-0.126940,0.017480,9.782136,0,0,0,0,0,0,0.00
20809,19354877,0,0,0,-0.098570,0.055910,9.757883,0,0,0,0,0,0,0.00
20813,19354916,0,0,0,-0.155914,0.055643,9.772704,0,0,0,0,0,0,0.00
20818,19354956,0,0,0,-0.118014,0.079757,9.734015,0,0,0,0,0,0,0.00
20822,19354996,0,0,0,-0.146558,0.079624,9.758208,0,0,0,0,0,0,0.00
20826,19355036,0,0,0,-0.108432,0.070227,9.729162,0,0,0,0,0,0,0.00
20831,19355075,0,0,0,-0.122597,0.051012,9.743687,0,0,0,0,0,0,0.00
20835,19355115,0,0,0,-0.079545,0.027277,9.724217,0,0,0,0,0,0,0.00
20838,19355145,0,0,0,-0.103250,0.008017,9.743608,0,0,0,0,0,0,0.00
20843,19355184,0,0,0,-0.098228,-0.011108,9.762782,0,0,0,0,0,0,0.00
20847,19355224,0,0,0,-0.112642,0.007973,9.767656,0,0,0,0,0,0,0.00
20852,19355264,0,0,0,-0.112679,0.007973,9.762861,0,0,0,0,0,0,0.00
20856,19355303,0,0,0,-0.131968,0.046181,9.767742,0,0,0,0,0,0,0.00
20860,19355343,0,0,0,-0.107992,0.046291,9.772355,0,0,0,0,0,0,0.00
20865,19355383,0,0,0,-0.127246,0.060564,9.767684,0,0,0,0,0,0,0.00
20869,19355423,0,0,0,-0.108446,0.089375,9.738723,0,0,0,0,0,0,0.00
20874,19355462,0,0,0,-0.146661,0.070049,9.739043,0,0,0,0,0,0,0.00
20878,19355502,0,0,0,-0.108264,0.041505,9.734002,0,0,0,0,0,0,0.00
20882,19355542,0,0,0,-0.108140,0.022356,9.738827,0,0,0,0,0,0,0.00
20887,19355581,0,0,0,-0.107979,0.003208,9.748447,0,0,0,0,0,0,0.00
20891,19355621,0,0,0,-0.112679,-0.015963,9.748513,0,0,0,0,0,0,0.00
20896,19355661,0,0,0,-0.112547,0.003186,9.777254,0,0,0,0,0,0,0.00
20899,19355690,0,0,0,-0.093513,0.012849,9.767504,0,0,0,0,0,0,0.00
20903,19355730,0,0,0,-0.126793,0.017480,9.801316,0,0,0,0,0,0,0.00
20908,19355770,0,0,0,-0.108212,0.070227,9.757933,0,0,0,0,0,0,0.00
20912,19355810,0,0,0,-0.122472,0.079735,9.777207,0,0,0,0,0,0,0.00
20917,19355849,0,0,0,-0.093841,0.084655,9.767391,0,0,0,0,0,0,0.00
20921,19355889,0,0,0,-0.155966,0.050857,9.763121,0,0,0,0,0,0,0.00
20925,19355929,0,0,0,-0.108279,0.036717,9.729215,0,0,0,0,0,0,0.00
20930,19355968,0,0,0,-0.146311,0.017391,9.753510,0,0,0,0,0,0,0.00
20934,19356008,0,0,0,-0.084245,0.008105,9.724283,0,0,0,0,0,0,0.00
20939,19356048,0,0,0,-0.131786,-0.001690,9.763022,0,0,0,0,0,0,0.00
20943,19356087,0,0,0,-0.112598,-0.001601,9.767672,0,0,0,0,0,0,0.00
20947,19356127,0,0,0,-0.117320,0.007950,9.782078,0,0,0,0,0,0,0.00
20952,19356167,0,0,0,-0.112767,0.027122,9.762832,0,0,0,0,0,0,0.00
20956,19356206,0,0,0,-0.112678,0.055843,9.791557,0,0,0,0,0,0,0.00
20960,19356238,-0.107604,0.040466,9.773948,0,0,0,0.142050,-0.934656,-0.579942,0.256440,0.658266,-169.624178,28.35
20965,19356286,0,0,0,-0.141580,0.070071,9.777368,0,0,0,0,0,0,0.00
20969,19356326,0,0,0,-0.113205,0.074992,9.733986,0,0,0,0,0,0,0.00
20973,19356355,0,0,0,-0.146536,0.050901,9.743868,0,0,0,0,0,0,0.00
20977,19356395,0,0,0,-0.103587,0.041527,9.719581,0,0,0,0,0,0,0.00
20981,19356435,0,0,0,-0.122422,0.012715,9.743747,0,0,0,0,0,0,0.00
20986,19356474,0,0,0,-0.107979,0.003208,9.748447,0,0,0,0,0,0,0.00
20990,19356514,0,0,0,-0.117393,0.007950,9.772488,0,0,0,0,0,0,0.00
20995,19356554,0,0,0,-0.107752,-0.006367,9.772438,0,0,0,0,0,0,0.00
21003,19356633,0,0,0,-0.107861,0.041505,9.786748,0,0,0,0,0,0,0.00
21008,19356673,0,0,0,-0.131872,0.065330,9.791688,0,0,0,0,0,0,0.00
21012,19356713,0,0,0,-0.122597,0.074947,9.758035,0,0,0,0,0,0,0.00
21015,19356742,0,0,0,-0.103424,0.070249,9.757896,0,0,0,0,0,0,0.00
21020,19356782,0,0,0,-0.113022,0.051057,9.743613,0,0,0,0,0,0,0.00
21024,19356822,0,0,0,-0.113030,0.036695,9.734046,0,0,0,0,0,0,0.00
21029,19356861,0,0,0,-0.127196,0.017480,9.748570,0,0,0,0,0,0,0.00
21033,19356901,0,0,0,-0.103118,0.003230,9.758001,0,0,0,0,0,0,0.00
21037,19356941,0,0,0,-0.098373,0.012827,9.757950,0,0,0,0,0,0,0.00
21042,19356981,0,0,0,-0.126999,-0.001668,9.762986,0,0,0,0,0,0,0.00
21046,19357020,0,0,0,-0.126851,0.022267,9.796514,0,0,0,0,0,0,0.00
21051,19357060,0,0,0,-0.103233,0.060675,9.777092,0,0,0,0,0,0,0.00
21055,19357100,0,0,0,-0.141470,0.070071,9.791753,0,0,0,0,0,0,0.00
21059,19357139,0,0,0,-0.117759,0.055820,9.753233,0,0,0,0,0,0,0.00
21064,19357179,0,0,0,-0.127312,0.074925,9.767661,0,0,0,0,0,0,0.00
21068,19357219,0,0,0,-0.113250,0.060631,9.719624,0,0,0,0,0,0,0.00
21073,19357258,0,0,0,-0.108184,0.031930,9.738812,0,0,0,0,0,0,0.00
21076,19357288,0,0,0,-0.103337,0.027165,9.743579,0,0,0,0,0,0,0.00
21080,19357328,0,0,0,-0.136757,0.022223,9.753430,0,0,0,0,0,0,0.00
21085,19357368,0,0,0,-0.088792,0.003297,9.753098,0,0,0,0,0,0,0.00
21089,19357407,0,0,0,-0.126954,0.012693,9.777349,0,0,0,0,0,0,0.00
21094,19357447,0,0,0,-0.098366,0.027188,9.767518,0,0,0,0,0,0,0.00
21098,19357487,0,0,0,-0.151046,0.046091,9.777477,0,0,0,0,0,0,0.00
21102,19357526,0,0,0,-0.122355,0.046225,9.772465,0,0,0,0,0,0,0.00
21107,19357566,0,0,0,-0.122465,0.070160,9.772428,0,0,0,0,0,0,0.00
21111,19357606,0,0,0,-0.117934,0.070182,9.738825,0,0,0,0,0,0,0.00
21115,19357645,0,0,0,-0.127407,0.055777,9.743716,0,0,0,0,0,0,0.00
21120,19357685,0,0,0,-0.122546,0.055799,9.753270,0,0,0,0,0,0,0.00
21124,19357725,0,0,0,-0.093703,0.022423,9.748308,0,0,0,0,0,0,0.00
21129,19357764,0,0,0,-0.127013,0.017480,9.772546,0,0,0,0,0,0,0.00
21133,19357804,0,0,0,-0.102979,0.012804,9.781961,0,0,0,0,0,0,0.00
21137,19357844,0,0,0,-0.098381,0.022401,9.762730,0,0,0,0,0,0,0.00
21142,19357884,0,0,0,-0.103140,0.031952,9.772342,0,0,0,0,0,0,0.00
21146,19357923,0,0,0,-0.112722,0.041483,9.777194,0,0,0,0,0,0,0.00
21150,19357953,0,0,0,-0.141302,0.041349,9.796593,0,0,0,0,0,0,0.00
21154,19357993,0,0,0,-0.141573,0.060497,9.772588,0,0,0,0,0,0,0.00
21158,19358032,0,0,0,-0.108138,0.070227,9.767523,0,0,0,0,0,0,0.00
21163,19358072,0,0,0,-0.113103,0.060631,9.738804,0,0,0,0,0,0,0.00
21167,19358112,0,0,0,-0.117934,0.046247,9.724477,0,0,0,0,0,0,0.00
21172,19358152,0,0,0,-0.112847,0.036695,9.758021,0,0,0,0,0,0,0.00
21176,19358191,0,0,0,-0.103206,0.022378,9.757971,0,0,0,0,0,0,0.00
21180,19358231,0,0,0,-0.117378,0.012737,9.777275,0,0,0,0,0,0,0.00
21185,19358271,0,0,0,-0.112869,0.017547,9.743666,0,0,0,0,0,0,0.00
21189,19358310,0,0,0,-0.102927,0.017591,9.791544,0,0,0,0,0,0,0.00
21192,19358340,0,0,0,-0.103096,0.022378,9.772356,0,0,0,0,0,0,0.00
21198,19358390,0,0,0,-0.136725,0.055732,9.777354,0,0,0,0,0,0,0.00
21202,19358429,0,0,0,-0.113037,0.070205,9.753174,0,0,0,0,0,0,0.00
21207,19358469,0,0,0,-0.146785,0.089198,9.734219,0,0,0,0,0,0,0.00
21211,19358509,0,0,0,-0.098761,0.065485,9.738688,0,0,0,0,0,0,0.00
21214,19358539,0,0,0,-0.117890,0.060608,9.738840,0,0,0,0,0,0,0.00
21219,19358578,0,0,0,-0.136779,0.027010,9.753424,0,0,0,0,0,0,0.00
21223,19358618,0,0,0,-0.122408,0.017502,9.748534,0,0,0,0,0,0,0.00
21228,19358658,0,0,0,-0.102971,0.003230,9.777182,0,0,0,0,0,0,0.00
21232,19358697,0,0,0,-0.112782,0.022334,9.758043,0,0,0,0,0,0,0.00
21236,19358737,0,0,0,-0.107905,0.003208,9.758038,0,0,0,0,0,0,0.00
21241,19358777,0,0,0,-0.117525,0.036673,9.772443,0,0,0,0,0,0,0.00
21245,19358816,0,0,0,-0.112686,0.041483,9.781989,0,0,0,0,0,0,0.00
21250,19358856,0,0,0,-0.112920,0.060631,9.762779,0,0,0,0,0,0,0.00
21254,19358896,0,0,0,-0.103578,0.079823,9.743496,0,0,0,0,0,0,0.00
21258,19358935,0,0,0,-0.113132,0.074992,9.743576,0,0,0,0,0,0,0.00
21263,19358975,0,0,0,-0.108028,0.046291,9.767560,0,0,0,0,0,0,0.00
21267,19359015,0,0,0,-0.103287,0.031952,9.753161,0,0,0,0,0,0,0.00
21270,19359045,0,0,0,-0.117782,0.036673,9.738877,0,0,0,0,0,0,0.00
21276,19359094,0,0,0,-0.102971,0.003230,9.777182,0,0,0,0,0,0,0.00
21280,19359134,0,0,0,-0.103074,-0.006345,9.758017,0,0,0,0,0,0,0.00
21284,19359164,0,0,0,-0.141267,-0.006522,9.772693,0,0,0,0,0,0,0.00
21288,19359203,0,0,0,-0.088769,0.022445,9.767452,0,0,0,0,0,0,0.00
21292,19359243,0,0,0,-0.122304,0.051012,9.782047,0,0,0,0,0,0,0.00
21297,19359283,0,0,0,-0.117743,0.060608,9.758020,0,0,0,0,0,0,0.00
21301,19359322,0,0,0,-0.117737,0.051034,9.753240,0,0,0,0,0,0,0.00
21306,19359362,0,0,0,-0.117839,0.065395,9.748423,0,0,0,0,0,0,0.00
21310,19359402,0,0,0,-0.117831,0.055820,9.743643,0,0,0,0,0,0,0.00
21314,19359442,0,0,0,-0.103213,0.031952,9.762752,0,0,0,0,0,0,0.00
21319,19359481,0,0,0,-0.122488,0.027077,9.743725,0,0,0,0,0,0,0.00
21323,19359521,0,0,0,-0.117393,0.007950,9.772488,0,0,0,0,0,0,0.00
21328,19359561,0,0,0,-0.093659,0.012849,9.748323,0,0,0,0,0,0,0.00
21332,19359600,0,0,0,-0.145878,0.003031,9.801484,0,0,0,0,0,0,0.00
21336,19359640,0,0,0,-0.083996,0.017679,9.762629,0,0,0,0,0,0,0.00
21341,19359680,0,0,0,-0.131837,0.041394,9.782135,0,0,0,0,0,0,0.00
21345,19359719,0,0,0,-0.103417,0.060675,9.753117,0,0,0,0,0,0,0.00
21350,19359759,0,0,0,-0.112905,0.065418,9.767567,0,0,0,0,0,0,0.00
21353,19359789,0,0,0,-0.141653,0.070071,9.767777,0,0,0,0,0,0,0.00
21357,19359829,0,0,0,-0.103439,0.065462,9.753109,0,0,0,0,0,0,0.00
21362,19359868,0,0,0,-0.141479,0.031775,9.767838,0,0,0,0,0,0,0.00
21366,19359908,0,0,0,-0.108162,0.027143,9.738820,0,0,0,0,0,0,0.00
21371,19359948,0,0,0,-0.127049,0.017480,9.767751,0,0,0,0,0,0,0.00
21375,19359987,0,0,0,-0.122078,-0.006433,9.777343,0,0,0,0,0,0,0.00
21379,19360027,0,0,0,-0.088791,0.027232,9.767446,0,0,0,0,0,0,0.00
21384,19360067,0,0,0,-0.131734,0.027033,9.786953,0,0,0,0,0,0,0.00
21388,19360106,0,0,0,-0.093651,0.051146,9.772239,0,0,0,0,0,0,0.00
21392,19360138,-0.107250,0.034017,9.776722,0,0,0,0.142033,-0.932667,-0.579418,0.257301,0.658597,-169.175102,28.35
21397,19360186,0,0,0,-0.098783,0.070271,9.738680,0,0,0,0,0,0,0.00
21401,19360226,0,0,0,-0.127246,0.060564,9.767684,0,0,0,0,0,0,0.00
21406,19360265,0,0,0,-0.117700,0.051034,9.758035,0,0,0,0,0,0,0.00
21410,19360305,0,0,0,-0.122575,0.046225,9.743694,0,0,0,0,0,0,0.00
21413,19360335,0,0,0,-0.117730,0.041460,9.748460,0,0,0,0,0,0,0.00
21418,19360374,0,0,0,-0.122261,0.017502,9.767715,0,0,0,0,0,0,0.00
21422,19360414,0,0,0,-0.107979,0.027143,9.762795,0,0,0,0,0,0,0.00
21427,19360454,0,0,0,-0.117474,0.017524,9.767677,0,0,0,0,0,0,0.00
21435,19360533,0,0,0,-0.131873,0.041394,9.777340,0,0,0,0,0,0,0.00
21440,19360573,0,0,0,-0.098592,0.060698,9.757875,0,0,0,0,0,0,0.00
21444,19360613,0,0,0,-0.117751,0.046247,9.748452,0,0,0,0,0,0,0.00
21447,19360642,0,0,0,-0.117495,0.046247,9.782018,0,0,0,0,0,0,0.00
21453,19360692,0,0,0,-0.117517,0.051034,9.782010,0,0,0,0,0,0,0.00
21457,19360732,0,0,0,-0.117883,0.051034,9.734059,0,0,0,0,0,0,0.00
21461,19360761,0,0,0,-0.122364,0.031863,9.762897,0,0,0,0,0,0,0.00
21465,19360801,0,0,0,-0.117701,0.027099,9.743688,0,0,0,0,0,0,0.00
21469,19360841,0,0,0,-0.131998,0.012671,9.743819,0,0,0,0,0,0,0.00
21474,19360880,0,0,0,-0.107876,0.012782,9.767612,0,0,0,0,0,0,0.00
21478,19360920,0,0,0,-0.093725,0.027210,9.748302,0,0,0,0,0,0,0.00
21483,19360960,0,0,0,-0.122400,0.031863,9.758102,0,0,0,0,0,0,0.00
21487,19361000,0,0,0,-0.108096,0.036717,9.753190,0,0,0,0,0,0,0.00
21491,19361039,0,0,0,-0.122377,0.051012,9.772457,0,0,0,0,0,0,0.00
21496,19361079,0,0,0,-0.103402,0.065462,9.757904,0,0,0,0,0,0,0.00
21500,19361119,0,0,0,-0.117781,0.060608,9.753225,0,0,0,0,0,0,0.00
21505,19361158,0,0,0,-0.136661,0.041371,9.777376,0,0,0,0,0,0,0.00
21509,19361198,0,0,0,-0.103514,0.041527,9.729171,0,0,0,0,0,0,0.00
21513,19361238,0,0,0,-0.132050,0.031819,9.748585,0,0,0,0,0,0,0.00
21518,19361277,0,0,0,-0.122372,0.017502,9.753329,0,0,0,0,0,0,0.00
21522,19361317,0,0,0,-0.151062,0.017368,9.758342,0,0,0,0,0,0,0.00
21527,19361357,0,0,0,-0.098498,0.031975,9.753125,0,0,0,0,0,0,0.00
21530,19361387,0,0,0,-0.098234,0.022401,9.781910,0,0,0,0,0,0,0.00
21534,19361426,0,0,0,-0.088894,0.041594,9.762628,0,0,0,0,0,0,0.00
21539,19361466,0,0,0,-0.141266,0.041349,9.801388,0,0,0,0,0,0,0.00
21543,19361506,0,0,0,-0.103374,0.051101,9.753131,0,0,0,0,0,0,0.00
21547,19361545,0,0,0,-0.141551,0.055710,9.772595,0,0,0,0,0,0,0.00
21552,19361585,0,0,0,-0.122561,0.051012,9.748482,0,0,0,0,0,0,0.00
21556,19361625,0,0,0,-0.122459,0.036651,9.753300,0,0,0,0,0,0,0.00
21561,19361664,0,0,0,-0.103418,0.036739,9.738769,0,0,0,0,0,0,0.00
21565,19361704,0,0,0,-0.127152,0.031841,9.762934,0,0,0,0,0,0,0.00
21569,19361744,0,0,0,-0.112855,0.022334,9.748453,0,0,0,0,0,0,0.00
21574,19361784,0,0,0,-0.103184,0.017591,9.757978,0,0,0,0,0,0,0.00
21578,19361823,0,0,0,-0.103125,0.036739,9.777129,0,0,0,0,0,0,0.00
21583,19361863,0,0,0,-0.108088,0.051079,9.762757,0,0,0,0,0,0,0.00
21587,19361903,0,0,0,-0.103322,0.055887,9.762714,0,0,0,0,0,0,0.00
21590,19361932,0,0,0,-0.103336,0.051101,9.757926,0,0,0,0,0,0,0.00
21595,19361972,0,0,0,-0.122414,0.051012,9.767662,0,0,0,0,0,0,0.00
21599,19362012,0,0,0,-0.117715,0.046247,9.753247,0,0,0,0,0,0,0.00
21604,19362051,0,0,0,-0.127137,0.036629,9.767721,0,0,0,0,0,0,0.00
21608,19362091,0,0,0,-0.103184,0.041527,9.772326,0,0,0,0,0,0,0.00
21612,19362131,0,0,0,-0.103287,0.031952,9.753161,0,0,0,0,0,0,0.00
21617,19362171,0,0,0,-0.112803,0.027122,9.758037,0,0,0,0,0,0,0.00
21621,19362210,0,0,0,-0.112782,0.022334,9.758043,0,0,0,0,0,0,0.00
21626,19362250,0,0,0,-0.098520,0.036762,9.753118,0,0,0,0,0,0,0.00
21630,19362290,0,0,0,-0.112679,0.031908,9.777209,0,0,0,0,0,0,0.00
21634,19362329,0,0,0,-0.098548,0.051124,9.757890,0,0,0,0,0,0,0.00
21639,19362369,0,0,0,-0.117457,0.046247,9.786813,0,0,0,0,0,0,0.00
21643,19362409,0,0,0,-0.117538,0.055820,9.782003,0,0,0,0,0,0,0.00
21647,19362438,-0.115099,0.049972,9.772388,0,0,0,0.142026,-0.935683,-0.577449,0.257929,0.661247,-168.908851,28.35
21652,19362488,0,0,0,-0.160688,0.036473,9.763180,0,0,0,0,0,0,0.00
21656,19362528,0,0,0,-0.093812,0.046358,9.748271,0,0,0,0,0,0,0.00
21661,19362567,0,0,0,-0.146259,0.022179,9.763093,0,0,0,0,0,0,0.00
21664,19362597,0,0,0,-0.093623,0.012849,9.753119,0,0,0,0,0,0,0.00
21668,19362637,0,0,0,-0.117555,0.027099,9.762868,0,0,0,0,0,0,0.00
21673,19362677,0,0,0,-0.079201,0.008128,9.757813,0,0,0,0,0,0,0.00
21677,19362716,0,0,0,-0.112745,0.022334,9.762838,0,0,0,0,0,0,0.00
21682,19362756,0,0,0,-0.136521,0.027010,9.786989,0,0,0,0,0,0,0.00
21690,19362835,0,0,0,-0.127224,0.055777,9.767692,0,0,0,0,0,0,0.00
21695,19362875,0,0,0,-0.117663,0.051034,9.762830,0,0,0,0,0,0,0.00
21699,19362915,0,0,0,-0.136880,0.065307,9.762954,0,0,0,0,0,0,0.00
21702,19362945,0,0,0,-0.117861,0.051010,9.738881,0,0,0,0,0,0,0.00
21707,19362984,0,0,0,-0.131916,0.031795,9.767791,0,0,0,0,0,0,0.00
21711,19363024,0,0,0,-0.103352,0.027142,9.743605,0,0,0,0,0,0,0.00
21716,19363064,0,0,0,-0.112759,0.022310,9.762865,0,0,0,0,0,0,0.00
21720,19363103,0,0,0,-0.098389,0.012802,9.757976,0,0,0,0,0,0,0.00
21724,19363143,0,0,0,-0.107903,0.031906,9.777199,0,0,0,0,0,0,0.00
21729,19363183,0,0,0,-0.117575,0.036649,9.767674,0,0,0,0,0,0,0.00
21733,19363222,0,0,0,-0.112743,0.051033,9.782000,0,0,0,0,0,0,0.00
21738,19363262,0,0,0,-0.103373,0.055864,9.757945,0,0,0,0,0,0,0.00
21742,19363302,0,0,0,-0.132143,0.065305,9.758148,0,0,0,0,0,0,0.00
21746,19363342,0,0,0,-0.141902,0.065261,9.734245,0,0,0,0,0,0,0.00
21751,19363381,0,0,0,-0.160833,0.065172,9.763162,0,0,0,0,0,0,0.00
21755,19363421,0,0,0,-0.117927,0.041436,9.724511,0,0,0,0,0,0,0.00
21760,19363461,0,0,0,-0.151047,0.002984,9.753595,0,0,0,0,0,0,0.00
21763,19363490,0,0,0,-0.069837,0.027297,9.743350,0,0,0,0,0,0,0.00
21767,19363530,0,0,0,-0.122167,0.017479,9.782125,0,0,0,0,0,0,0.00
21772,19363570,0,0,0,-0.088703,0.012847,9.772288,0,0,0,0,0,0,0.00
21776,19363609,0,0,0,-0.103138,0.036716,9.777155,0,0,0,0,0,0,0.00
21781,19363649,0,0,0,-0.117567,0.051010,9.777242,0,0,0,0,0,0,0.00
21785,19363689,0,0,0,-0.122252,0.060562,9.796444,0,0,0,0,0,0,0.00
21789,19363729,0,0,0,-0.136785,0.065283,9.777365,0,0,0,0,0,0,0.00
21794,19363768,0,0,0,-0.127135,0.065328,9.786882,0,0,0,0,0,0,0.00
21798,19363808,0,0,0,-0.108079,0.046268,9.762791,0,0,0,0,0,0,0.00
21803,19363848,0,0,0,-0.112869,0.022310,9.748480,0,0,0,0,0,0,0.00
21807,19363887,0,0,0,-0.117684,0.036649,9.753289,0,0,0,0,0,0,0.00
21811,19363927,0,0,0,-0.098315,0.012802,9.767566,0,0,0,0,0,0,0.00
21816,19363967,0,0,0,-0.112906,0.022310,9.743685,0,0,0,0,0,0,0.00
21820,19364006,0,0,0,-0.117422,0.027075,9.782075,0,0,0,0,0,0,0.00
21824,19364038,-0.110159,0.020947,9.764775,0,0,0,0.142036,-0.933166,-0.579424,0.253767,0.658373,-168.724572,28.38
21829,19364086,0,0,0,-0.098388,0.036737,9.772324,0,0,0,0,0,0,0.00
21833,19364125,0,0,0,-0.127392,0.065328,9.753317,0,0,0,0,0,0,0.00
21838,19364165,0,0,0,-0.132099,0.055731,9.758163,0,0,0,0,0,0,0.00
21841,19364195,0,0,0,-0.122231,0.055776,9.796452,0,0,0,0,0,0,0.00
21845,19364235,0,0,0,-0.089112,0.046356,9.738670,0,0,0,0,0,0,0.00
21850,19364274,0,0,0,-0.155994,0.046045,9.758359,0,0,0,0,0,0,0.00
21854,19364314,0,0,0,-0.089018,0.017634,9.733920,0,0,0,0,0,0,0.00
21859,19364354,0,0,0,-0.117517,0.007926,9.758129,0,0,0,0,0,0,0.00
21867,19364433,0,0,0,-0.112664,0.017524,9.772462,0,0,0,0,0,0,0.00
21872,19364473,0,0,0,-0.108013,0.031906,9.762814,0,0,0,0,0,0,0.00
21876,19364513,0,0,0,-0.122371,0.046201,9.772491,0,0,0,0,0,0,0.00
21879,19364542,0,0,0,-0.117824,0.074945,9.758024,0,0,0,0,0,0,0.00
21884,19364582,0,0,0,-0.136800,0.060495,9.772577,0,0,0,0,0,0,0.00
21888,19364622,0,0,0,-0.117772,0.055798,9.753260,0,0,0,0,0,0,0.00
21893,19364661,0,0,0,-0.127297,0.036605,9.748567,0,0,0,0,0,0,0.00
21897,19364701,0,0,0,-0.098460,0.036737,9.762733,0,0,0,0,0,0,0.00
21901,19364741,0,0,0,-0.103037,0.022354,9.781973,0,0,0,0,0,0,0.00
21906,19364780,0,0,0,-0.117700,0.031861,9.748502,0,0,0,0,0,0,0.00
21910,19364820,0,0,0,-0.103051,0.017568,9.777184,0,0,0,0,0,0,0.00
21915,19364860,0,0,0,-0.103080,0.031928,9.781958,0,0,0,0,0,0,0.00
21919,19364900,0,0,0,-0.122377,0.031839,9.762923,0,0,0,0,0,0,0.00
21923,19364939,0,0,0,-0.117728,0.046223,9.753274,0,0,0,0,0,0,0.00
21928,19364979,0,0,0,-0.146279,0.055665,9.782248,0,0,0,0,0,0,0.00
21932,19365019,0,0,0,-0.108232,0.079778,9.762738,0,0,0,0,0,0,0.00
21937,19365058,0,0,0,-0.141755,0.065261,9.753426,0,0,0,0,0,0,0.00
21940,19365088,0,0,0,-0.131996,0.041369,9.762980,0,0,0,0,0,0,0.00
21945,19365138,0,0,0,-0.122532,0.041414,9.748523,0,0,0,0,0,0,0.00
21949,19365167,0,0,0,-0.112992,0.041459,9.743654,0,0,0,0,0,0,0.00
21953,19365207,0,0,0,-0.093644,0.022399,9.757925,0,0,0,0,0,0,0.00
21958,19365247,0,0,0,-0.117327,-0.001648,9.777325,0,0,0,0,0,0,0.00
21962,19365287,0,0,0,-0.088666,0.012847,9.777083,0,0,0,0,0,0,0.00
21966,19365326,0,0,0,-0.117428,0.036649,9.786855,0,0,0,0,0,0,0.00
21971,19365366,0,0,0,-0.112861,0.036672,9.758047,0,0,0,0,0,0,0.00
21975,19365406,0,0,0,-0.141587,0.060473,9.772614,0,0,0,0,0,0,0.00
21979,19365445,0,0,0,-0.108504,0.074990,9.724385,0,0,0,0,0,0,0.00
21984,19365485,0,0,0,-0.151464,0.070004,9.739105,0,0,0,0,0,0,0.00
21988,19365525,0,0,0,-0.117927,0.065372,9.738859,0,0,0,0,0,0,0.00
21993,19365564,0,0,0,-0.122458,0.041414,9.758113,0,0,0,0,0,0,0.00
21997,19365604,0,0,0,-0.132056,0.022221,9.743831,0,0,0,0,0,0,0.00
22001,19365644,0,0,0,-0.083943,0.003295,9.762677,0,0,0,0,0,0,0.00
22006,19365683,0,0,0,-0.088696,0.003273,9.767509,0,0,0,0,0,0,0.00
22010,19365723,0,0,0,-0.093622,0.017612,9.757932,0,0,0,0,0,0,0.00
22015,19365763,0,0,0,-0.122143,0.036627,9.796481,0,0,0,0,0,0,0.00
22018,19365793,0,0,0,-0.088805,0.027208,9.767471,0,0,0,0,0,0,0.00
22022,19365832,0,0,0,-0.136792,0.050921,9.767797,0,0,0,0,0,0,0.00
22027,19365872,0,0,0,-0.127568,0.079689,9.738909,0,0,0,0,0,0,0.00
22031,19365912,0,0,0,-0.117531,0.051010,9.782037,0,0,0,0,0,0,0.00
22036,19365951,0,0,0,-0.098710,0.051099,9.738735,0,0,0,0,0,0,0.00
22040,19365991,0,0,0,-0.117648,0.036649,9.758084,0,0,0,0,0,0,0.00
22044,19366031,0,0,0,-0.089083,0.031995,9.733898,0,0,0,0,0,0,0.00
22049,19366071,0,0,0,-0.117444,0.007926,9.767719,0,0,0,0,0,0,0.00
22053,19366110,0,0,0,-0.088974,0.008060,9.733935,0,0,0,0,0,0,0.00
22056,19366140,0,0,0,-0.131705,-0.006502,9.772646,0,0,0,0,0,0,0.00
22062,19366190,0,0,0,-0.107898,0.022332,9.772419,0,0,0,0,0,0,0.00
22066,19366229,0,0,0,-0.117589,0.055798,9.777235,0,0,0,0,0,0,0.00
22071,19366269,0,0,0,-0.136806,0.070070,9.777357,0,0,0,0,0,0,0.00
22075,19366309,0,0,0,-0.127318,0.065328,9.762907,0,0,0,0,0,0,0.00
22079,19366338,-0.126463,0.060307,9.768034,0,0,0,0.142017,-0.934187,-0.577432,0.258618,0.660386,-168.458667,28.38
22083,19366378,0,0,0,-0.122487,0.055776,9.762886,0,0,0,0,0,0,0.00
22087,19366418,0,0,0,-0.122430,0.027053,9.753341,0,0,0,0,0,0,0.00
22092,19366458,0,0,0,-0.112891,0.027098,9.748472,0,0,0,0,0,0,0.00
22096,19366497,0,0,0,-0.093783,0.012825,9.733964,0,0,0,0,0,0,0.00
22100,19366537,0,0,0,-0.107898,-0.001603,9.758071,0,0,0,0,0,0,0.00
22105,19366577,0,0,0,-0.088710,0.022421,9.777069,0,0,0,0,0,0,0.00
22109,19366616,0,0,0,-0.107889,0.036694,9.781986,0,0,0,0,0,0,0.00
22114,19366656,0,0,0,-0.127246,0.065328,9.772497,0,0,0,0,0,0,0.00
22122,19366735,0,0,0,-0.112977,0.070182,9.762790,0,0,0,0,0,0,0.00
22126,19366765,0,0,0,-0.146572,0.055665,9.743887,0,0,0,0,0,0,0.00
22130,19366805,0,0,0,-0.112985,0.055820,9.753222,0,0,0,0,0,0,0.00
22134,19366845,0,0,0,-0.108035,0.036694,9.762806,0,0,0,0,0,0,0.00
22139,19366884,0,0,0,-0.103380,0.041503,9.748377,0,0,0,0,0,0,0.00
22143,19366924,0,0,0,-0.127320,0.017457,9.734211,0,0,0,0,0,0,0.00
22148,19366964,0,0,0,-0.103095,0.003206,9.762822,0,0,0,0,0,0,0.00
22152,19367003,0,0,0,-0.102963,0.022354,9.791563,0,0,0,0,0,0,0.00
22156,19367043,0,0,0,-0.107794,0.031906,9.791584,0,0,0,0,0,0,0.00
22161,19367083,0,0,0,-0.127077,0.060540,9.791685,0,0,0,0,0,0,0.00
22165,19367122,0,0,0,-0.107911,0.041481,9.781979,0,0,0,0,0,0,0.00
22170,19367162,0,0,0,-0.108123,0.079778,9.777123,0,0,0,0,0,0,0.00
22174,19367202,0,0,0,-0.127348,0.055754,9.753332,0,0,0,0,0,0,0.00
22178,19367241,0,0,0,-0.117867,0.060584,9.743662,0,0,0,0,0,0,0.00
22183,19367281,0,0,0,-0.122247,0.027053,9.777316,0,0,0,0,0,0,0.00
22187,19367321,0,0,0,-0.103468,0.036716,9.733999,0,0,0,0,0,0,0.00
22192,19367361,0,0,0,-0.127056,0.007882,9.762997,0,0,0,0,0,0,0.00
22195,19367390,0,0,0,-0.098329,0.031950,9.777126,0,0,0,0,0,0,0.00
22199,19367430,0,0,0,-0.107809,0.027120,9.786797,0,0,0,0,0,0,0.00
22204,19367470,0,0,0,-0.117341,0.017501,9.786884,0,0,0,0,0,0,0.00
22208,19367509,0,0,0,-0.112611,0.046246,9.796392,0,0,0,0,0,0,0.00
22213,19367549,0,0,0,-0.122341,0.055776,9.782066,0,0,0,0,0,0,0.00
22217,19367589,0,0,0,-0.136800,0.060495,9.772577,0,0,0,0,0,0,0.00
22221,19367628,0,0,0,-0.136777,0.079644,9.786932,0,0,0,0,0,0,0.00
22226,19367668,0,0,0,-0.122729,0.060562,9.734108,0,0,0,0,0,0,0.00
22230,19367708,0,0,0,-0.141836,0.050900,9.734267,0,0,0,0,0,0,0.00
22234,19367738,-0.129539,0.060855,9.745984,0,0,0,0.143022,-0.933168,-0.578915,0.257343,0.664296,-168.297583,28.38
22239,19367787,0,0,0,-0.122291,0.012691,9.762953,0,0,0,0,0,0,0.00
22243,19367827,0,0,0,-0.093431,-0.015898,9.762779,0,0,0,0,0,0,0.00
22248,19367867,0,0,0,-0.102912,0.003206,9.786798,0,0,0,0,0,0,0.00
22252,19367906,0,0,0,-0.122100,0.027053,9.796496,0,0,0,0,0,0,0.00
22256,19367938,-0.112128,0.017224,9.784205,0,0,0,0.141540,-0.934171,-0.578939,0.251364,0.656584,-168.276815,28.38
22260,19367976,0,0,0,-0.122275,0.041414,9.782088,0,0,0,0,0,0,0.00
22264,19368016,0,0,0,-0.131952,0.055731,9.777344,0,0,0,0,0,0,0.00
22269,19368055,0,0,0,-0.132113,0.074879,9.767723,0,0,0,0,0,0,0.00
22277,19368135,0,0,0,-0.117875,0.046223,9.734094,0,0,0,0,0,0,0.00
22282,19368174,0,0,0,-0.122546,0.036627,9.743735,0,0,0,0,0,0,0.00
22286,19368214,0,0,0,-0.093630,0.003251,9.748364,0,0,0,0,0,0,0.00
22289,19368244,0,0,0,-0.098514,0.008015,9.738803,0,0,0,0,0,0,0.00
22295,19368293,0,0,0,-0.112598,0.003162,9.772485,0,0,0,0,0,0,0.00
22303,19368363,0,0,0,-0.122216,0.036627,9.786891,0,0,0,0,0,0,0.00
22307,19368403,0,0,0,-0.107991,0.051055,9.777168,0,0,0,0,0,0,0.00
22311,19368442,0,0,0,-0.146250,0.041304,9.777474,0,0,0,0,0,0,0.00
22316,19368482,0,0,0,-0.127378,0.070115,9.758104,0,0,0,0,0,0,0.00
22320,19368522,0,0,0,-0.122642,0.065350,9.748486,0,0,0,0,0,0,0.00
22325,19368561,0,0,0,-0.127318,0.065328,9.762907,0,0,0,0,0,0,0.00
22329,19368601,0,0,0,-0.112911,0.055820,9.762813,0,0,0,0,0,0,0.00
22333,19368641,0,0,0,-0.122459,0.017479,9.743765,0,0,0,0,0,0,0.00
22338,19368680,0,0,0,-0.103029,-0.011155,9.762844,0,0,0,0,0,0,0.00
22342,19368720,0,0,0,-0.098337,0.017590,9.767558,0,0,0,0,0,0,0.00
22347,19368760,0,0,0,-0.131617,-0.001715,9.787024,0,0,0,0,0,0,0.00
22350,19368790,0,0,0,-0.126925,0.027031,9.791738,0,0,0,0,0,0,0.00
22354,19368829,0,0,0,-0.112729,0.031884,9.772440,0,0,0,0,0,0,0.00
22359,19368869,0,0,0,-0.160717,0.055598,9.772767,0,0,0,0,0,0,0.00
22363,19368909,0,0,0,-0.117764,0.094094,9.777175,0,0,0,0,0,0,0.00
22368,19368948,0,0,0,-0.122817,0.079711,9.734077,0,0,0,0,0,0,0.00
22372,19368988,0,0,0,-0.112911,0.055820,9.762813,0,0,0,0,0,0,0.00
22376,19369028,0,0,0,-0.079477,0.041615,9.743401,0,0,0,0,0,0,0.00
22381,19369067,0,0,0,-0.117605,0.027075,9.758100,0,0,0,0,0,0,0.00
22385,19369107,0,0,0,-0.103228,0.007993,9.748429,0,0,0,0,0,0,0.00
22389,19369138,-0.105883,0.019990,9.762381,0,0,0,0.142026,-0.934680,-0.577938,0.249492,0.659669,-168.138116,28.38
22394,19369186,0,0,0,-0.122159,0.007904,9.777346,0,0,0,0,0,0,0.00
22398,19369226,0,0,0,-0.112802,0.031884,9.762850,0,0,0,0,0,0,0.00
22403,19369266,0,0,0,-0.127187,0.060540,9.777300,0,0,0,0,0,0,0.00
22407,19369306,0,0,0,-0.103218,0.070226,9.786693,0,0,0,0,0,0,0.00
22410,19369335,0,0,0,-0.141689,0.074835,9.767796,0,0,0,0,0,0,0.00
22415,19369375,0,0,0,-0.108314,0.089352,9.757929,0,0,0,0,0,0,0.00
22419,19369415,0,0,0,-0.122649,0.050988,9.738917,0,0,0,0,0,0,0.00
22424,19369454,0,0,0,-0.108219,0.036694,9.738831,0,0,0,0,0,0,0.00
22432,19369534,0,0,0,-0.103117,0.007993,9.762815,0,0,0,0,0,0,0.00
22437,19369574,0,0,0,-0.098110,0.008015,9.791549,0,0,0,0,0,0,0.00
22441,19369613,0,0,0,-0.103095,0.027142,9.777170,0,0,0,0,0,0,0.00
22444,19369643,0,0,0,-0.112635,0.027098,9.782038,0,0,0,0,0,0,0.00
22450,19369693,0,0,0,-0.117479,0.055798,9.791620,0,0,0,0,0,0,0.00
22454,19369732,0,0,0,-0.103299,0.079800,9.781882,0,0,0,0,0,0,0.00
22458,19369762,0,0,0,-0.132070,0.065305,9.767738,0,0,0,0,0,0,0.00
22462,19369802,0,0,0,-0.098790,0.084609,9.748274,0,0,0,0,0,0,0.00
22466,19369841,0,0,0,-0.151309,0.060429,9.753506,0,0,0,0,0,0,0.00
22471,19369881,0,0,0,-0.089025,0.027208,9.738701,0,0,0,0,0,0,0.00
22475,19369921,0,0,0,-0.112744,0.003162,9.753304,0,0,0,0,0,0,0.00
22480,19369961,0,0,0,-0.107861,-0.001603,9.762866,0,0,0,0,0,0,0.00
22484,19370000,0,0,0,-0.098140,-0.001559,9.781974,0,0,0,0,0,0,0.00
22488,19370040,0,0,0,-0.107707,0.012758,9.791614,0,0,0,0,0,0,0.00
22493,19370080,0,0,0,-0.145994,0.017368,9.796692,0,0,0,0,0,0,0.00
22497,19370119,0,0,0,-0.117487,0.041436,9.782052,0,0,0,0,0,0,0.00
22502,19370159,0,0,0,-0.151177,0.079577,9.782246,0,0,0,0,0,0,0.00
22506,19370199,0,0,0,-0.122634,0.079711,9.758053,0,0,0,0,0,0,0.00
22510,19370238,0,0,0,-0.127362,0.074902,9.762892,0,0,0,0,0,0,0.00
22515,19370278,0,0,0,-0.098754,0.060673,9.738721,0,0,0,0,0,0,0.00
22519,19370318,0,0,0,-0.103263,0.031928,9.757982,0,0,0,0,0,0,0.00
22523,19370348,0,0,0,-0.098579,0.022376,9.738781,0,0,0,0,0,0,0.00
22527,19370387,0,0,0,-0.122174,0.003118,9.772558,0,0,0,0,0,0,0.00
22531,19370427,0,0,0,-0.083599,-0.015854,9.796272,0,0,0,0,0,0,0.00
22536,19370467,0,0,0,-0.126837,0.007882,9.791767,0,0,0,0,0,0,0.00
22540,19370506,0,0,0,-0.112656,0.031884,9.782030,0,0,0,0,0,0,0.00
22545,19370546,0,0,0,-0.136609,0.050921,9.791772,0,0,0,0,0,0,0.00
22549,19370586,0,0,0,-0.127238,0.079689,9.782064,0,0,0,0,0,0,0.00
22553,19370625,0,0,0,-0.117655,0.070159,9.777212,0,0,0,0,0,0,0.00
22558,19370665,0,0,0,-0.127362,0.074902,9.762892,0,0,0,0,0,0,0.00
22562,19370705,0,0,0,-0.103541,0.060651,9.738757,0,0,0,0,0,0,0.00
22566,19370744,0,0,0,-0.122437,0.036627,9.758121,0,0,0,0,0,0,0.00
22571,19370784,0,0,0,-0.112899,0.012736,9.738904,0,0,0,0,0,0,0.00
22575,19370824,0,0,0,-0.112627,-0.006413,9.762910,0,0,0,0,0,0,0.00
22580,19370864,0,0,0,-0.112738,-0.006413,9.748525,0,0,0,0,0,0,0.00
22584,19370903,0,0,0,-0.107832,0.007971,9.772441,0,0,0,0,0,0,0.00
22587,19370933,0,0,0,-0.103080,0.031928,9.781958,0,0,0,0,0,0,0.00
22592,19370973,0,0,0,-0.126901,0.046179,9.806092,0,0,0,0,0,0,0.00
22596,19371012,0,0,0,-0.103460,0.075012,9.757915,0,0,0,0,0,0,0.00
22601,19371052,0,0,0,-0.146447,0.084388,9.777408,0,0,0,0,0,0,0.00
22605,19371092,0,0,0,-0.084536,0.084676,9.733780,0,0,0,0,0,0,0.00
22609,19371132,0,0,0,-0.141602,0.055687,9.767826,0,0,0,0,0,0,0.00
22614,19371171,0,0,0,-0.103416,0.041503,9.743582,0,0,0,0,0,0,0.00
22618,19371211,0,0,0,-0.146017,-0.001781,9.782337,0,0,0,0,0,0,0.00
22623,19371251,0,0,0,-0.103301,0.007993,9.738839,0,0,0,0,0,0,0.00
22627,19371290,0,0,0,-0.102839,0.003206,9.796388,0,0,0,0,0,0,0.00
22631,19371330,0,0,0,-0.102949,0.003206,9.782002,0,0,0,0,0,0,0.00
22636,19371370,0,0,0,-0.102978,0.017568,9.786775,0,0,0,0,0,0,0.00
22640,19371409,0,0,0,-0.107918,0.051055,9.786758,0,0,0,0,0,0,0.00
22643,19371439,0,0,0,-0.122260,0.070137,9.801224,0,0,0,0,0,0,0.00
22649,19371489,0,0,0,-0.113168,0.079756,9.743594,0,0,0,0,0,0,0.00
22653,19371528,0,0,0,-0.146513,0.074813,9.763037,0,0,0,0,0,0,0.00
22657,19371558,0,0,0,-0.108409,0.070204,9.733983,0,0,0,0,0,0,0.00
22661,19371598,0,0,0,-0.117561,0.017501,9.758114,0,0,0,0,0,0,0.00
22665,19371638,0,0,0,-0.122546,0.036627,9.743735,0,0,0,0,0,0,0.00
22670,19371677,0,0,0,-0.112576,-0.001625,9.772492,0,0,0,0,0,0,0.00
22674,19371717,0,0,0,-0.112803,0.007949,9.748502,0,0,0,0,0,0,0.00
22679,19371757,0,0,0,-0.117422,0.003139,9.767727,0,0,0,0,0,0,0.00
22683,19371796,0,0,0,-0.103138,0.036716,9.777155,0,0,0,0,0,0,0.00
22687,19371836,0,0,0,-0.122150,0.046201,9.801261,0,0,0,0,0,0,0.00
22692,19371876,0,0,0,-0.112845,0.065394,9.777183,0,0,0,0,0,0,0.00
22696,19371915,0,0,0,-0.122641,0.089285,9.762834,0,0,0,0,0,0,0.00
22699,19371945,0,0,0,-0.151148,0.065216,9.777473,0,0,0,0,0,0,0.00
22705,19371995,0,0,0,-0.089163,0.065505,9.743436,0,0,0,0,0,0,0.00
22709,19372035,0,0,0,-0.122363,0.036627,9.767711,0,0,0,0,0,0,0.00
22714,19372074,0,0,0,-0.098389,0.012802,9.757976,0,0,0,0,0,0,0.00
22718,19372114,0,0,0,-0.127064,-0.006479,9.753429,0,0,0,0,0,0,0.00
22721,19372144,0,0,0,-0.093505,0.008038,9.767537,0,0,0,0,0,0,0.00
22726,19372183,0,0,0,-0.117539,0.012713,9.758121,0,0,0,0,0,0,0.00
22730,19372223,0,0,0,-0.112613,0.022310,9.782045,0,0,0,0,0,0,0.00
22735,19372263,0,0,0,-0.103080,0.031928,9.781958,0,0,0,0,0,0,0.00
22739,19372302,0,0,0,-0.108123,0.079778,9.777123,0,0,0,0,0,0,0.00
22743,19372342,0,0,0,-0.127340,0.070115,9.762899,0,0,0,0,0,0,0.00
22748,19372382,0,0,0,-0.141572,0.065261,9.777401,0,0,0,0,0,0,0.00
22752,19372422,0,0,0,-0.117883,0.055798,9.738874,0,0,0,0,0,0,0.00
22757,19372461,0,0,0,-0.117597,0.041436,9.767667,0,0,0,0,0,0,0.00
22761,19372501,0,0,0,-0.098549,0.031950,9.748356,0,0,0,0,0,0,0.00
22765,19372541,0,0,0,-0.103051,-0.006369,9.762837,0,0,0,0,0,0,0.00
22770,19372580,0,0,0,-0.088696,0.003273,9.767509,0,0,0,0,0,0,0.00
22774,19372620,0,0,0,-0.126954,0.017457,9.782162,0,0,0,0,0,0,0.00
22779,19372660,0,0,0,-0.098329,0.031950,9.777126,0,0,0,0,0,0,0.00
22782,19372690,0,0,0,-0.117442,0.055798,9.796415,0,0,0,0,0,0,0.00
22786,19372729,0,0,0,-0.108321,0.051055,9.734013,0,0,0,0,0,0,0.00
22791,19372769,0,0,0,-0.131968,0.050943,9.772555,0,0,0,0,0,0,0.00
22795,19372809,0,0,0,-0.122817,0.079711,9.734077,0,0,0,0,0,0,0.00
22800,19372848,0,0,0,-0.141675,0.055687,9.758236,0,0,0,0,0,0,0.00
22804,19372888,0,0,0,-0.103482,0.041514,9.733978,0,0,0,0,0,0,0.00
22808,19372928,0,0,0,-0.112766,0.017535,9.758063,0,0,0,0,0,0,0.00
22813,19372967,0,0,0,-0.102956,-0.001570,9.777202,0,0,0,0,0,0,0.00
22817,19373007,0,0,0,-0.117525,0.027086,9.767676,0,0,0,0,0,0,0.00
22822,19373047,0,0,0,-0.102956,-0.001570,9.777202,0,0,0,0,0,0,0.00
22826,19373086,0,0,0,-0.107832,0.017557,9.777207,0,0,0,0,0,0,0.00
22830,19373126,0,0,0,-0.093490,0.046347,9.791439,0,0,0,0,0,0,0.00
22835,19373166,0,0,0,-0.117422,0.036660,9.786841,0,0,0,0,0,0,0.00
22839,19373206,0,0,0,-0.108299,0.079789,9.753135,0,0,0,0,0,0,0.00
22843,19373245,0,0,0,-0.131939,0.046169,9.772550,0,0,0,0,0,0,0.00
22848,19373285,0,0,0,-0.127392,0.050978,9.743735,0,0,0,0,0,0,0.00
22852,19373325,0,0,0,-0.122466,0.036638,9.753312,0,0,0,0,0,0,0.00
22857,19373364,0,0,0,-0.127232,0.031830,9.753356,0,0,0,0,0,0,0.00
22860,19373394,0,0,0,-0.098359,0.008027,9.757970,0,0,0,0,0,0,0.00
22864,19373434,0,0,0,-0.122511,0.022278,9.738950,0,0,0,0,0,0,0.00
22869,19373473,0,0,0,-0.093410,0.012836,9.781901,0,0,0,0,0,0,0.00
22873,19373513,0,0,0,-0.117173,0.022300,9.810840,0,0,0,0,0,0,0.00
22878,19373553,0,0,0,-0.122151,0.031852,9.791680,0,0,0,0,0,0,0.00
22882,19373593,0,0,0,-0.136660,0.055720,9.786957,0,0,0,0,0,0,0.00
22886,19373632,0,0,0,-0.108044,0.055854,9.772353,0,0,0,0,0,0,0.00
22891,19373672,0,0,0,-0.122480,0.055787,9.762873,0,0,0,0,0,0,0.00
22895,19373712,0,0,0,-0.117751,0.060596,9.758034,0,0,0,0,0,0,0.00
22898,19373741,0,0,0,-0.132019,0.055743,9.767740,0,0,0,0,0,0,0.00
22904,19373791,0,0,0,-0.122598,0.041426,9.738919,0,0,0,0,0,0,0.00
22908,19373831,0,0,0,-0.108052,0.017557,9.748437,0,0,0,0,0,0,0.00
22913,19373870,0,0,0,-0.117475,0.007938,9.762911,0,0,0,0,0,0,0.00
22917,19373910,0,0,0,-0.122042,0.007916,9.791718,0,0,0,0,0,0,0.00
22920,19373940,0,0,0,-0.103176,0.022367,9.762779,0,0,0,0,0,0,0.00
22925,19373980,0,0,0,-0.141280,0.026976,9.791833,0,0,0,0,0,0,0.00
22929,19374019,0,0,0,-0.098592,0.051110,9.753107,0,0,0,0,0,0,0.00
22934,19374059,0,0,0,-0.117598,0.051022,9.772433,0,0,0,0,0,0,0.00
22938,19374099,0,0,0,-0.132107,0.074892,9.767710,0,0,0,0,0,0,0.00
22942,19374138,0,0,0,-0.098526,0.060685,9.767478,0,0,0,0,0,0,0.00
22947,19374178,0,0,0,-0.136960,0.065294,9.753376,0,0,0,0,0,0,0.00
22951,19374218,0,0,0,-0.113184,0.036683,9.714878,0,0,0,0,0,0,0.00
22956,19374257,0,0,0,-0.131998,0.027020,9.753400,0,0,0,0,0,0,0.00
22960,19374297,0,0,0,-0.088813,-0.001503,9.748322,0,0,0,0,0,0,0.00
22964,19374337,0,0,0,-0.126873,-0.006467,9.777391,0,0,0,0,0,0,0.00
22969,19374377,0,0,0,-0.083886,0.008094,9.772246,0,0,0,0,0,0,0.00
22973,19374416,0,0,0,-0.107766,0.003196,9.777230,0,0,0,0,0,0,0.00
22978,19374456,0,0,0,-0.112772,0.051044,9.777191,0,0,0,0,0,0,0.00
22982,19374496,0,0,0,-0.108095,0.051066,9.762770,0,0,0,0,0,0,0.00
22986,19374535,0,0,0,-0.136887,0.089230,9.777314,0,0,0,0,0,0,0.00
22991,19374575,0,0,0,-0.117737,0.065383,9.762821,0,0,0,0,0,0,0.00
22994,19374605,0,0,0,-0.127194,0.055765,9.772499,0,0,0,0,0,0,0.00
22998,19374644,0,0,0,-0.117804,0.031874,9.734103,0,0,0,0,0,0,0.00
23003,19374684,0,0,0,-0.117459,0.012725,9.767698,0,0,0,0,0,0,0.00
23007,19374724,0,0,0,-0.117664,0.017512,9.743715,0,0,0,0,0,0,0.00
23012,19374764,0,0,0,-0.112444,0.003174,9.791652,0,0,0,0,0,0,0.00
23016,19374803,0,0,0,-0.103125,0.003218,9.758014,0,0,0,0,0,0,0.00
23020,19374843,0,0,0,-0.122232,0.017490,9.772522,0,0,0,0,0,0,0.00
23025,19374883,0,0,0,-0.107979,0.017557,9.758027,0,0,0,0,0,0,0.00
23029,19374922,0,0,0,-0.098424,0.046324,9.772295,0,0,0,0,0,0,0.00
23034,19374962,0,0,0,-0.117876,0.055809,9.738861,0,0,0,0,0,0,0.00
23038,19375002,0,0,0,-0.122575,0.060575,9.753275,0,0,0,0,0,0,0.00
23042,19375041,0,0,0,-0.108227,0.055854,9.748378,0,0,0,0,0,0,0.00
23047,19375081,0,0,0,-0.112802,0.041471,9.767616,0,0,0,0,0,0,0.00
23051,19375121,0,0,0,-0.103234,0.027153,9.757977,0,0,0,0,0,0,0.00
23056,19375160,0,0,0,-0.127020,0.017468,9.772558,0,0,0,0,0,0,0.00
23059,19375190,0,0,0,-0.098367,0.017601,9.762750,0,0,0,0,0,0,0.00
23063,19375230,0,0,0,-0.136552,0.007850,9.772646,0,0,0,0,0,0,0.00
23068,19375270,0,0,0,-0.103337,0.017579,9.738811,0,0,0,0,0,0,0.00
23072,19375309,0,0,0,-0.122231,0.041426,9.786870,0,0,0,0,0,0,0.00
23077,19375349,0,0,0,-0.093907,0.065495,9.748254,0,0,0,0,0,0,0.00
23081,19375389,0,0,0,-0.131806,0.065317,9.801291,0,0,0,0,0,0,0.00
23085,19375428,0,0,0,-0.108233,0.065428,9.753158,0,0,0,0,0,0,0.00
23090,19375468,0,0,0,-0.122385,0.051000,9.772470,0,0,0,0,0,0,0.00
23094,19375508,0,0,0,-0.103490,0.051088,9.738758,0,0,0,0,0,0,0.00
23098,19375538,-0.114445,0.046056,9.759879,0,0,0,0.142027,-0.932673,-0.578918,0.249661,0.662013,-167.400381,28.36
23103,19375587,0,0,0,-0.098447,0.027175,9.757940,0,0,0,0,0,0,0.00
23107,19375627,0,0,0,-0.136647,0.012636,9.763048,0,0,0,0,0,0,0.00
23112,19375667,0,0,0,-0.103117,0.017579,9.767581,0,0,0,0,0,0,0.00
23116,19375706,0,0,0,-0.112744,0.012748,9.758071,0,0,0,0,0,0,0.00
23120,19375738,-0.111499,0.018379,9.765930,0,0,0,0.141522,-0.934189,-0.577436,0.245613,0.660557,-167.378026,28.36
23125,19375786,0,0,0,-0.127012,0.031830,9.782126,0,0,0,0,0,0,0.00
23128,19375815,0,0,0,-0.117546,0.055809,9.782017,0,0,0,0,0,0,0.00
23133,19375855,0,0,0,-0.098556,0.051110,9.757902,0,0,0,0,0,0,0.00
23141,19375935,0,0,0,-0.084097,0.046391,9.767391,0,0,0,0,0,0,0.00
23146,19375974,0,0,0,-0.141412,0.031763,9.777440,0,0,0,0,0,0,0.00
23150,19376014,0,0,0,-0.103278,0.012792,9.743613,0,0,0,0,0,0,0.00
23153,19376044,0,0,0,-0.131838,0.007873,9.763020,0,0,0,0,0,0,0.00
23159,19376093,0,0,0,-0.108096,0.027131,9.748423,0,0,0,0,0,0,0.00
23167,19376163,0,0,0,-0.093658,0.051133,9.772251,0,0,0,0,0,0,0.00
23171,19376202,0,0,0,-0.103299,0.041514,9.757954,0,0,0,0,0,0,0.00
23175,19376242,0,0,0,-0.108045,0.031919,9.758005,0,0,0,0,0,0,0.00
23180,19376282,0,0,0,-0.132085,0.046169,9.753369,0,0,0,0,0,0,0.00
23184,19376322,0,0,0,-0.136623,0.055720,9.791752,0,0,0,0,0,0,0.00
23189,19376361,0,0,0,-0.112955,0.051044,9.753216,0,0,0,0,0,0,0.00
23193,19376401,0,0,0,-0.136499,0.036572,9.796576,0,0,0,0,0,0,0.00
23197,19376441,0,0,0,-0.117599,0.027086,9.758086,0,0,0,0,0,0,0.00
23202,19376480,0,0,0,-0.126976,0.007895,9.772573,0,0,0,0,0,0,0.00
23206,19376520,0,0,0,-0.098681,0.022388,9.724382,0,0,0,0,0,0,0.00
23211,19376560,0,0,0,-0.131786,0.012659,9.772602,0,0,0,0,0,0,0.00
23214,19376589,0,0,0,-0.098535,0.022388,9.743563,0,0,0,0,0,0,0.00
23218,19376629,0,0,0,-0.112802,0.041471,9.767616,0,0,0,0,0,0,0.00
23223,19376669,0,0,0,-0.084045,0.051177,9.776974,0,0,0,0,0,0,0.00
23227,19376709,0,0,0,-0.108006,0.055854,9.777148,0,0,0,0,0,0,0.00
23232,19376748,0,0,0,-0.108050,0.065428,9.777133,0,0,0,0,0,0,0.00
23236,19376788,0,0,0,-0.108132,0.027131,9.743628,0,0,0,0,0,0,0.00
23240,19376828,0,0,0,-0.151149,0.026931,9.753545,0,0,0,0,0,0,0.00
23245,19376867,0,0,0,-0.146289,0.026954,9.763099,0,0,0,0,0,0,0.00
23249,19376907,0,0,0,-0.132050,0.022234,9.743817,0,0,0,0,0,0,0.00
23253,19376938,-0.136049,0.028887,9.753924,0,0,0,0.141543,-0.933666,-0.579434,0.245680,0.664360,-167.240194,28.36
23258,19376986,0,0,0,-0.112832,0.031897,9.758041,0,0,0,0,0,0,0.00
23262,19377026,0,0,0,-0.108045,0.031919,9.758005,0,0,0,0,0,0,0.00
23267,19377066,0,0,0,-0.098344,0.036749,9.777105,0,0,0,0,0,0,0.00
23271,19377105,0,0,0,-0.107985,0.051066,9.777155,0,0,0,0,0,0,0.00
23275,19377145,0,0,0,-0.108014,0.041492,9.767580,0,0,0,0,0,0,0.00
23280,19377185,0,0,0,-0.112679,0.022323,9.772442,0,0,0,0,0,0,0.00
23283,19377215,0,0,0,-0.117743,0.051022,9.753253,0,0,0,0,0,0,0.00
23288,19377254,0,0,0,-0.131910,0.031808,9.767777,0,0,0,0,0,0,0.00
23296,19377334,0,0,0,-0.122334,0.031852,9.767705,0,0,0,0,0,0,0.00
23301,19377373,0,0,0,-0.098322,0.031962,9.777113,0,0,0,0,0,0,0.00
23305,19377413,0,0,0,-0.117672,0.027086,9.748496,0,0,0,0,0,0,0.00
23308,19377443,0,0,0,-0.112832,0.031897,9.758041,0,0,0,0,0,0,0.00
23314,19377493,0,0,0,-0.083782,0.041603,9.805759,0,0,0,0,0,0,0.00
23318,19377532,0,0,0,-0.112765,0.041471,9.772411,0,0,0,0,0,0,0.00
23323,19377572,0,0,0,-0.117569,0.036660,9.767661,0,0,0,0,0,0,0.00
23326,19377602,0,0,0,-0.136800,0.046146,9.762996,0,0,0,0,0,0,0.00
23330,19377641,0,0,0,-0.108081,0.031919,9.753210,0,0,0,0,0,0,0.00
23335,19377681,0,0,0,-0.117429,0.046235,9.791621,0,0,0,0,0,0,0.00
23339,19377721,0,0,0,-0.108045,0.031919,9.758005,0,0,0,0,0,0,0.00
23344,19377760,0,0,0,-0.136786,0.026998,9.753436,0,0,0,0,0,0,0.00
23348,19377800,0,0,0,-0.093966,0.046347,9.729103,0,0,0,0,0,0,0.00
23352,19377840,0,0,0,-0.136676,0.026998,9.767821,0,0,0,0,0,0,0.00
23357,19377880,0,0,0,-0.093798,0.065495,9.762639,0,0,0,0,0,0,0.00
23361,19377919,0,0,0,-0.122121,0.041426,9.801255,0,0,0,0,0,0,0.00
23366,19377959,0,0,0,-0.103138,0.046302,9.781921,0,0,0,0,0,0,0.00
23370,19377999,0,0,0,-0.098395,0.031962,9.767523,0,0,0,0,0,0,0.00
23374,19378038,0,0,0,-0.127165,0.041404,9.767726,0,0,0,0,0,0,0.00
23379,19378078,0,0,0,-0.136669,0.017424,9.763041,0,0,0,0,0,0,0.00
23383,19378118,0,0,0,-0.103286,0.022367,9.748394,0,0,0,0,0,0,0.00
23388,19378157,0,0,0,-0.117577,0.022300,9.758094,0,0,0,0,0,0,0.00
23391,19378187,0,0,0,-0.122437,0.022278,9.748540,0,0,0,0,0,0,0.00
23395,19378227,0,0,0,-0.093945,0.041559,9.729111,0,0,0,0,0,0,0.00
23400,19378267,0,0,0,-0.141507,0.036550,9.767842,0,0,0,0,0,0,0.00
23404,19378306,0,0,0,-0.098395,0.031962,9.767523,0,0,0,0,0,0,0.00
23409,19378346,0,0,0,-0.126982,0.041404,9.791701,0,0,0,0,0,0,0.00
23413,19378386,0,0,0,-0.093534,0.055921,9.791425,0,0,0,0,0,0,0.00
23417,19378425,0,0,0,-0.127093,0.017468,9.762968,0,0,0,0,0,0,0.00
23422,19378465,0,0,0,-0.122356,0.036638,9.767697,0,0,0,0,0,0,0.00
23426,19378505,0,0,0,-0.146186,0.036528,9.782264,0,0,0,0,0,0,0.00
23430,19378544,0,0,0,-0.122839,0.046213,9.710141,0,0,0,0,0,0,0.00
23435,19378584,0,0,0,-0.136888,0.041359,9.748618,0,0,0,0,0,0,0.00
23439,19378624,0,0,0,-0.089010,0.017646,9.733907,0,0,0,0,0,0,0.00
23444,19378663,0,0,0,-0.098293,0.017601,9.772340,0,0,0,0,0,0,0.00
23448,19378703,0,0,0,-0.098469,0.031962,9.757933,0,0,0,0,0,0,0.00
23451,19378733,0,0,0,-0.112641,0.022323,9.777237,0,0,0,0,0,0,0.00
23457,19378783,0,0,0,-0.088848,0.046369,9.772223,0,0,0,0,0,0,0.00
23460,19378812,0,0,0,-0.122370,0.055787,9.777258,0,0,0,0,0,0,0.00
23465,19378852,0,0,0,-0.122341,0.041426,9.772485,0,0,0,0,0,0,0.00
23469,19378892,0,0,0,-0.122437,0.046213,9.762887,0,0,0,0,0,0,0.00
23473,19378931,0,0,0,-0.136698,0.031785,9.767814,0,0,0,0,0,0,0.00
23478,19378971,0,0,0,-0.112964,0.036683,9.743649,0,0,0,0,0,0,0.00
23482,19379011,0,0,0,-0.151047,0.036505,9.772710,0,0,0,0,0,0,0.00
23487,19379051,0,0,0,-0.108206,0.027131,9.734037,0,0,0,0,0,0,0.00
23491,19379090,0,0,0,-0.107913,0.027131,9.772398,0,0,0,0,0,0,0.00
23495,19379130,0,0,0,-0.103344,0.027153,9.743591,0,0,0,0,0,0,0.00
23500,19379170,0,0,0,-0.117401,0.007938,9.772501,0,0,0,0,0,0,0.00
23504,19379209,0,0,0,-0.098433,0.031962,9.762728,0,0,0,0,0,0,0.00
23507,19379239,0,0,0,-0.127209,0.050978,9.767711,0,0,0,0,0,0,0.00
23513,19379289,0,0,0,-0.088884,0.046369,9.767427,0,0,0,0,0,0,0.00
23517,19379328,0,0,0,-0.127129,0.041404,9.772521,0,0,0,0,0,0,0.00
23522,19379368,0,0,0,-0.108227,0.055854,9.748378,0,0,0,0,0,0,0.00
23525,19379398,0,0,0,-0.117804,0.031874,9.734103,0,0,0,0,0,0,0.00
23529,19379438,0,0,0,-0.122503,0.036638,9.748517,0,0,0,0,0,0,0.00
23534,19379477,0,0,0,-0.113074,0.012748,9.714915,0,0,0,0,0,0,0.00
23538,19379517,0,0,0,-0.103073,0.008005,9.767596,0,0,0,0,0,0,0.00
23543,19379557,0,0,0,-0.107825,0.007983,9.772428,0,0,0,0,0,0,0.00
23547,19379596,0,0,0,-0.117511,0.031874,9.772464,0,0,0,0,0,0,0.00
23551,19379636,0,0,0,-0.088614,0.027220,9.791433,0,0,0,0,0,0,0.00
23556,19379676,0,0,0,-0.103079,0.041514,9.786724,0,0,0,0,0,0,0.00
23560,19379715,0,0,0,-0.136806,0.055720,9.767776,0,0,0,0,0,0,0.00
23563,19379745,0,0,0,-0.131953,0.041382,9.767762,0,0,0,0,0,0,0.00
23569,19379795,0,0,0,-0.117773,0.041448,9.743678,0,0,0,0,0,0,0.00
23573,19379834,0,0,0,-0.122546,0.046213,9.748502,0,0,0,0,0,0,0.00
23578,19379874,0,0,0,-0.132195,0.046169,9.738984,0,0,0,0,0,0,0.00
23582,19379914,0,0,0,-0.103299,0.041514,9.757954,0,0,0,0,0,0,0.00
23585,19379944,0,0,0,-0.127166,0.017468,9.753378,0,0,0,0,0,0,0.00
23591,19379993,0,0,0,-0.103065,0.022367,9.777164,0,0,0,0,0,0,0.00
23594,19380023,0,0,0,-0.122173,0.012703,9.777325,0,0,0,0,0,0,0.00
23599,19380063,0,0,0,-0.098425,0.022388,9.757948,0,0,0,0,0,0,0.00
23603,19380102,0,0,0,-0.103220,0.031940,9.762764,0,0,0,0,0,0,0.00
23607,19380142,0,0,0,-0.141477,0.046124,9.777417,0,0,0,0,0,0,0.00
23612,19380182,0,0,0,-0.141638,0.065272,9.767797,0,0,0,0,0,0,0.00
23616,19380221,0,0,0,-0.122685,0.060575,9.738890,0,0,0,0,0,0,0.00
23621,19380261,0,0,0,-0.113132,0.041471,9.724461,0,0,0,0,0,0,0.00
23625,19380301,0,0,0,-0.113058,0.041471,9.734051,0,0,0,0,0,0,0.00
23629,19380341,0,0,0,-0.117686,0.022300,9.743709,0,0,0,0,0,0,0.00
23634,19380380,0,0,0,-0.103227,0.017579,9.753196,0,0,0,0,0,0,0.00
23638,19380420,0,0,0,-0.108030,0.012770,9.748445,0,0,0,0,0,0,0.00
23643,19380460,0,0,0,-0.107854,0.022345,9.777201,0,0,0,0,0,0,0.00
23646,19380489,0,0,0,-0.112824,0.022323,9.753262,0,0,0,0,0,0,0.00
23650,19380529,0,0,0,-0.103321,0.046302,9.757946,0,0,0,0,0,0,0.00
23656,19380579,0,0,0,-0.117773,0.065383,9.758026,0,0,0,0,0,0,0.00
23659,19380609,0,0,0,-0.113014,0.079767,9.762761,0,0,0,0,0,0,0.00
23664,19380648,0,0,0,-0.136924,0.065294,9.758171,0,0,0,0,0,0,0.00
23668,19380688,0,0,0,-0.113212,0.074981,9.733998,0,0,0,0,0,0,0.00
23672,19380728,0,0,0,-0.122473,0.046213,9.758092,0,0,0,0,0,0,0.00
23677,19380767,0,0,0,-0.108250,0.036705,9.734022,0,0,0,0,0,0,0.00
23681,19380807,0,0,0,-0.126932,-0.001680,9.772589,0,0,0,0,0,0,0.00
23686,19380847,0,0,0,-0.131735,-0.006489,9.767838,0,0,0,0,0,0,0.00
23690,19380886,0,0,0,-0.098081,0.003240,9.791543,0,0,0,0,0,0,0.00
23694,19380926,0,0,0,-0.117496,0.012725,9.762903,0,0,0,0,0,0,0.00
23699,19380966,0,0,0,-0.117533,0.036660,9.772456,0,0,0,0,0,0,0.00
23703,19381005,0,0,0,-0.113182,0.084555,9.743573,0,0,0,0,0,0,0.00
23707,19381045,0,0,0,-0.132071,0.074892,9.772505,0,0,0,0,0,0,0.00
23712,19381085,0,0,0,-0.113138,0.074981,9.743588,0,0,0,0,0,0,0.00
23716,19381125,0,0,0,-0.146500,0.041315,9.743896,0,0,0,0,0,0,0.00
23721,19381164,0,0,0,-0.122487,0.041426,9.753304,0,0,0,0,0,0,0.00
23724,19381194,0,0,0,-0.084311,0.036816,9.733841,0,0,0,0,0,0,0.00
23728,19381234,0,0,0,-0.117650,0.022300,9.748504,0,0,0,0,0,0,0.00
23733,19381273,0,0,0,-0.103286,0.022367,9.748394,0,0,0,0,0,0,0.00
23737,19381313,0,0,0,-0.098249,0.008027,9.772355,0,0,0,0,0,0,0.00
23742,19381353,0,0,0,-0.127042,0.022256,9.772552,0,0,0,0,0,0,0.00
23746,19381392,0,0,0,-0.093651,0.041559,9.767471,0,0,0,0,0,0,0.00
23750,19381432,0,0,0,-0.122480,0.055787,9.762873,0,0,0,0,0,0,0.00
23755,19381472,0,0,0,-0.136660,0.055720,9.786957,0,0,0,0,0,0,0.00
23759,19381512,0,0,0,-0.098651,0.055898,9.748305,0,0,0,0,0,0,0.00
23763,19381538,-0.118583,0.056546,9.766570,0,0,0,0.141522,-0.934189,-0.577436,0.252791,0.660971,-166.708232,28.36
23768,19381591,0,0,0,-0.122700,0.055787,9.734102,0,0,0,0,0,0,0.00
23772,19381631,0,0,0,-0.108059,0.027131,9.753218,0,0,0,0,0,0,0.00
23777,19381670,0,0,0,-0.117584,0.007938,9.748526,0,0,0,0,0,0,0.00
23781,19381710,0,0,0,-0.117409,-0.006423,9.762934,0,0,0,0,0,0,0.00
23784,19381740,0,0,0,-0.141397,0.012614,9.767879,0,0,0,0,0,0,0.00
23790,19381789,0,0,0,-0.088688,0.027220,9.781843,0,0,0,0,0,0,0.00
23793,19381819,0,0,0,-0.122247,0.036638,9.782083,0,0,0,0,0,0,0.00
23798,19381859,0,0,0,-0.107941,0.041492,9.777170,0,0,0,0,0,0,0.00
23806,19381938,0,0,0,-0.108388,0.075003,9.738757,0,0,0,0,0,0,0.00
23811,19381978,0,0,0,-0.151324,0.041292,9.739137,0,0,0,0,0,0,0.00
23815,19382018,0,0,0,-0.112898,0.022323,9.743671,0,0,0,0,0,0,0.00
23820,19382057,0,0,0,-0.122496,0.027064,9.743737,0,0,0,0,0,0,0.00
23824,19382097,0,0,0,-0.117745,0.027086,9.738906,0,0,0,0,0,0,0.00
23828,19382137,0,0,0,-0.103264,0.017579,9.748401,0,0,0,0,0,0,0.00
23832,19382167,0,0,0,-0.079339,0.012903,9.743432,0,0,0,0,0,0,0.00
23836,19382206,0,0,0,-0.131808,0.017447,9.772594,0,0,0,0,0,0,0.00
23841,19382246,0,0,0,-0.103196,0.051088,9.777119,0,0,0,0,0,0,0.00
23845,19382286,0,0,0,-0.117606,0.036660,9.762866,0,0,0,0,0,0,0.00
23849,19382325,0,0,0,-0.131968,0.060531,9.777323,0,0,0,0,0,0,0.00
23854,19382365,0,0,0,-0.117626,0.065383,9.777206,0,0,0,0,0,0,0.00
23858,19382405,0,0,0,-0.093922,0.060708,9.743466,0,0,0,0,0,0,0.00
23862,19382444,0,0,0,-0.127399,0.060553,9.748516,0,0,0,0,0,0,0.00
23867,19382484,0,0,0,-0.098645,0.022388,9.729177,0,0,0,0,0,0,0.00
23871,19382524,0,0,0,-0.146208,-0.006556,9.753561,0,0,0,0,0,0,0.00
23876,19382563,0,0,0,-0.117687,-0.001637,9.729361,0,0,0,0,0,0,0.00
23880,19382603,0,0,0,-0.112854,0.012748,9.743686,0,0,0,0,0,0,0.00
23884,19382643,0,0,0,-0.108008,0.031919,9.762800,0,0,0,0,0,0,0.00
23889,19382683,0,0,0,-0.103270,0.051088,9.767529,0,0,0,0,0,0,0.00
23893,19382722,0,0,0,-0.127370,0.070127,9.758091,0,0,0,0,0,0,0.00
23898,19382762,0,0,0,-0.141741,0.079634,9.762980,0,0,0,0,0,0,0.00
23901,19382792,0,0,0,-0.132005,0.060531,9.772528,0,0,0,0,0,0,0.00
23905,19382831,0,0,0,-0.127392,0.050978,9.743735,0,0,0,0,0,0,0.00
23910,19382871,0,0,0,-0.155966,0.041270,9.758353,0,0,0,0,0,0,0.00
23914,19382911,0,0,0,-0.070058,0.012947,9.704998,0,0,0,0,0,0,0.00
23919,19382950,0,0,0,-0.136640,0.003062,9.758268,0,0,0,0,0,0,0.00
23923,19382990,0,0,0,-0.069926,0.008161,9.719391,0,0,0,0,0,0,0.00
23927,19383030,0,0,0,-0.112605,-0.001614,9.767684,0,0,0,0,0,0,0.00
23932,19383070,0,0,0,-0.074726,0.051222,9.743336,0,0,0,0,0,0,0.00
23936,19383109,0,0,0,-0.136520,0.041359,9.796569,0,0,0,0,0,0,0.00
23940,19383138,-0.109652,0.036660,9.767578,0,0,0,0.141522,-0.934189,-0.577436,0.249620,0.655005,-166.523240,28.36
23945,19383189,0,0,0,-0.127392,0.074914,9.758083,0,0,0,0,0,0,0.00
23949,19383228,0,0,0,-0.141850,0.079634,9.748594,0,0,0,0,0,0,0.00
23954,19383268,0,0,0,-0.117759,0.070170,9.762814,0,0,0,0,0,0,0.00
23958,19383308,0,0,0,-0.141690,0.036550,9.743867,0,0,0,0,0,0,0.00
23962,19383338,-0.128522,0.050715,9.744663,0,0,0,0.142035,-0.935172,-0.578445,0.252041,0.658372,-166.499180,28.36
23967,19383387,0,0,0,-0.117496,-0.011210,9.748555,0,0,0,0,0,0,0.00
23970,19383417,0,0,0,-0.084238,0.012880,9.729083,0,0,0,0,0,0,0.00
23975,19383457,0,0,0,-0.117591,0.017512,9.753305,0,0,0,0,0,0,0.00
23983,19383536,0,0,0,-0.103285,0.046302,9.762741,0,0,0,0,0,0,0.00
23988,19383576,0,0,0,-0.165350,0.055588,9.791970,0,0,0,0,0,0,0.00
23992,19383615,0,0,0,-0.127201,0.065339,9.777279,0,0,0,0,0,0,0.00
23995,19383645,0,0,0,-0.122502,0.060575,9.762865,0,0,0,0,0,0,0.00
24001,19383695,0,0,0,-0.122612,0.060575,9.748480,0,0,0,0,0,0,0.00
24009,19383764,0,0,0,-0.127298,0.022256,9.738986,0,0,0,0,0,0,0.00
24013,19383804,0,0,0,-0.108338,0.031919,9.719645,0,0,0,0,0,0,0.00
24017,19383844,0,0,0,-0.112774,0.003174,9.748496,0,0,0,0,0,0,0.00
24022,19383883,0,0,0,-0.088923,0.022433,9.748285,0,0,0,0,0,0,0.00
24026,19383923,0,0,0,-0.107927,0.022345,9.767611,0,0,0,0,0,0,0.00
24031,19383963,0,0,0,-0.103152,0.041514,9.777134,0,0,0,0,0,0,0.00
24035,19384002,0,0,0,-0.112692,0.041471,9.782001,0,0,0,0,0,0,0.00
24039,19384042,0,0,0,-0.141602,0.065272,9.772593,0,0,0,0,0,0,0.00
24044,19384082,0,0,0,-0.132092,0.055743,9.758150,0,0,0,0,0,0,0.00
24048,19384121,0,0,0,-0.122729,0.070148,9.738874,0,0,0,0,0,0,0.00
24053,19384161,0,0,0,-0.113176,0.027109,9.710098,0,0,0,0,0,0,0.00
24056,19384191,0,0,0,-0.127459,0.041404,9.729365,0,0,0,0,0,0,0.00
24060,19384231,0,0,0,-0.089143,0.022433,9.719515,0,0,0,0,0,0,0.00
24065,19384270,0,0,0,-0.127313,0.017468,9.734198,0,0,0,0,0,0,0.00
24069,19384310,0,0,0,-0.079317,0.008117,9.743440,0,0,0,0,0,0,0.00
24074,19384350,0,0,0,-0.117188,0.017512,9.806051,0,0,0,0,0,0,0.00
24078,19384389,0,0,0,-0.074456,0.032074,9.767342,0,0,0,0,0,0,0.00
24082,19384429,0,0,0,-0.160423,0.041248,9.801546,0,0,0,0,0,0,0.00
24087,19384469,0,0,0,-0.079601,0.070349,9.743342,0,0,0,0,0,0,0.00
24091,19384508,0,0,0,-0.155885,0.055632,9.777512,0,0,0,0,0,0,0.00
24095,19384538,-0.129498,0.063459,9.768179,0,0,0,0.143033,-0.934160,-0.579427,0.254834,0.655343,-166.361229,28.36
24100,19384588,0,0,0,-0.118001,0.051022,9.719687,0,0,0,0,0,0,0.00
24104,19384628,0,0,0,-0.113294,0.036683,9.700493,0,0,0,0,0,0,0.00
24109,19384667,0,0,0,-0.117694,0.031874,9.748488,0,0,0,0,0,0,0.00
24113,19384707,0,0,0,-0.093755,0.008050,9.733958,0,0,0,0,0,0,0.00
24117,19384738,-0.102571,0.014211,9.737521,0,0,0,0.142023,-0.934181,-0.577933,0.248744,0.656918,-166.339106,28.36
24122,19384786,0,0,0,-0.098286,0.008027,9.767560,0,0,0,0,0,0,0.00
24125,19384816,0,0,0,-0.107965,0.022345,9.762815,0,0,0,0,0,0,0.00
24130,19384856,0,0,0,-0.136272,0.026998,9.820568,0,0,0,0,0,0,0.00
24138,19384935,0,0,0,-0.127201,0.065339,9.777279,0,0,0,0,0,0,0.00
24143,19384975,0,0,0,-0.132195,0.070105,9.753332,0,0,0,0,0,0,0.00
24147,19385015,0,0,0,-0.122648,0.060575,9.743685,0,0,0,0,0,0,0.00
24150,19385044,0,0,0,-0.108396,0.060641,9.729190,0,0,0,0,0,0,0.00
24156,19385094,0,0,0,-0.094040,0.046347,9.719513,0,0,0,0,0,0,0.00
24164,19385163,0,0,0,-0.174408,-0.073709,9.782654,0,0,0,0,0,0,0.00
24168,19385203,0,0,0,-0.250653,-0.064490,9.835968,0,0,0,0,0,0,0.00
24172,19385243,0,0,0,0.035128,-0.034435,9.656323,0,0,0,0,0,0,0.00
24177,19385283,0,0,0,-0.222013,-0.021273,9.850067,0,0,0,0,0,0,0.00
24181,19385322,0,0,0,0.077641,0.099804,9.660582,0,0,0,0,0,0,0.00
24186,19385362,0,0,0,-0.217612,0.103213,9.873812,0,0,0,0,0,0,0.00
24190,19385402,0,0,0,0.024537,0.219236,9.675179,0,0,0,0,0,0,0.00
24194,19385441,0,0,0,-0.213322,0.155894,9.840128,0,0,0,0,0,0,0.00
24199,19385481,0,0,0,-0.046754,0.151885,9.704600,0,0,0,0,0,0,0.00
24203,19385521,0,0,0,-0.136558,0.041359,9.791774,0,0,0,0,0,0,0.00
24208,19385560,0,0,0,-0.122409,-0.016019,9.729419,0,0,0,0,0,0,0.00
24211,19385590,0,0,0,-0.054941,-0.087515,9.743407,0,0,0,0,0,0,0.00
24215,19385630,0,0,0,-0.212221,-0.140905,9.807025,0,0,0,0,0,0,0.00
24220,19385670,0,0,0,-0.059978,-0.073175,9.719445,0,0,0,0,0,0,0.00
24224,19385709,0,0,0,-0.155433,-0.035323,9.782449,0,0,0,0,0,0,0.00
24229,19385749,0,0,0,-0.070327,0.079967,9.709688,0,0,0,0,0,0,0.00
24233,19385789,0,0,0,-0.175174,0.117775,9.796741,0,0,0,0,0,0,0.00
24237,19385828,0,0,0,-0.056299,0.161414,9.714248,0,0,0,0,0,0,0.00
24242,19385868,0,0,0,-0.161001,0.127416,9.777436,0,0,0,0,0,0,0.00
24246,19385908,0,0,0,-0.084712,0.108623,9.724138,0,0,0,0,0,0,0.00
24250,19385938,-0.111400,0.117448,9.755735,0,0,0,0.142522,-0.933675,-0.578424,0.264555,0.657732,-166.198973,28.36
24255,19385987,0,0,0,-0.093689,0.017624,9.748328,0,0,0,0,0,0,0.00
24259,19386027,0,0,0,-0.112422,-0.025549,9.777311,0,0,0,0,0,0,0.00
24264,19386066,0,0,0,-0.098264,0.003240,9.767568,0,0,0,0,0,0,0.00
24268,19386106,0,0,0,-0.112649,0.007961,9.767669,0,0,0,0,0,0,0.00
24272,19386138,-0.110649,-0.000225,9.769466,0,0,0,0.142549,-0.935153,-0.579943,0.248889,0.652184,-166.179232,28.36
24276,19386176,0,0,0,-0.117435,0.055809,9.796402,0,0,0,0,0,0,0.00
24280,19386215,0,0,0,-0.141638,0.041337,9.753449,0,0,0,0,0,0,0.00
24285,19386255,0,0,0,-0.112911,0.041471,9.753231,0,0,0,0,0,0,0.00
24293,19386334,0,0,0,-0.117868,0.046235,9.734080,0,0,0,0,0,0,0.00
24298,19386374,0,0,0,-0.117826,0.036660,9.734096,0,0,0,0,0,0,0.00
24302,19386414,0,0,0,-0.117700,0.041448,9.753268,0,0,0,0,0,0,0.00
24305,19386444,0,0,0,-0.112839,0.041471,9.762821,0,0,0,0,0,0,0.00
24311,19386493,0,0,0,-0.117590,0.065383,9.782001,0,0,0,0,0,0,0.00
24319,19386563,0,0,0,-0.088811,0.046369,9.777018,0,0,0,0,0,0,0.00
24323,19386602,0,0,0,-0.117612,0.046235,9.767646,0,0,0,0,0,0,0.00
24327,19386642,0,0,0,-0.107971,0.031919,9.767595,0,0,0,0,0,0,0.00
24332,19386682,0,0,0,-0.108037,0.022345,9.753225,0,0,0,0,0,0,0.00
24336,19386721,0,0,0,-0.141354,0.026976,9.782243,0,0,0,0,0,0,0.00
24341,19386761,0,0,0,-0.127086,0.031830,9.772536,0,0,0,0,0,0,0.00
24345,19386801,0,0,0,-0.122518,0.031852,9.743730,0,0,0,0,0,0,0.00
24349,19386841,0,0,0,-0.103381,0.027153,9.738796,0,0,0,0,0,0,0.00
24354,19386880,0,0,0,-0.112942,0.031897,9.743656,0,0,0,0,0,0,0.00
24358,19386920,0,0,0,-0.088944,0.027220,9.748278,0,0,0,0,0,0,0.00
24363,19386960,0,0,0,-0.141492,0.041337,9.772630,0,0,0,0,0,0,0.00
24366,19386989,0,0,0,-0.093754,0.055921,9.762654,0,0,0,0,0,0,0.00
24370,19387029,0,0,0,-0.127099,0.050978,9.782096,0,0,0,0,0,0,0.00
24375,19387069,0,0,0,-0.103504,0.070237,9.748319,0,0,0,0,0,0,0.00
24379,19387108,0,0,0,-0.112728,0.041471,9.777206,0,0,0,0,0,0,0.00
24384,19387148,0,0,0,-0.103270,0.051088,9.767529,0,0,0,0,0,0,0.00
24388,19387188,0,0,0,-0.117502,0.046235,9.782031,0,0,0,0,0,0,0.00
24392,19387228,0,0,0,-0.112679,0.022323,9.772442,0,0,0,0,0,0,0.00
24397,19387267,0,0,0,-0.127188,0.022256,9.753371,0,0,0,0,0,0,0.00
24401,19387307,0,0,0,-0.122284,0.012703,9.762939,0,0,0,0,0,0,0.00
24405,19387338,-0.120169,0.020204,9.759465,0,0,0,0.142045,-0.933658,-0.579930,0.251150,0.654770,-166.039074,28.36
24410,19387386,0,0,0,-0.108161,0.041492,9.748400,0,0,0,0,0,0,0.00
24414,19387426,0,0,0,-0.108153,0.055854,9.757968,0,0,0,0,0,0,0.00
24419,19387466,0,0,0,-0.136793,0.036572,9.758216,0,0,0,0,0,0,0.00
24423,19387505,0,0,0,-0.117700,0.041448,9.753268,0,0,0,0,0,0,0.00
24427,19387545,0,0,0,-0.107978,0.041492,9.772375,0,0,0,0,0,0,0.00
24431,19387575,0,0,0,-0.127048,0.031830,9.777331,0,0,0,0,0,0,0.00
24435,19387615,0,0,0,-0.103263,0.041514,9.762749,0,0,0,0,0,0,0.00
24440,19387654,0,0,0,-0.117547,0.031874,9.767669,0,0,0,0,0,0,0.00
24448,19387734,0,0,0,-0.122364,0.022278,9.758130,0,0,0,0,0,0,0.00
24453,19387773,0,0,0,-0.122437,0.022278,9.748540,0,0,0,0,0,0,0.00
24457,19387813,0,0,0,-0.098271,0.012814,9.772347,0,0,0,0,0,0,0.00
24460,19387843,0,0,0,-0.122254,0.022278,9.772515,0,0,0,0,0,0,0.00
24466,19387892,0,0,0,-0.084201,0.036816,9.748226,0,0,0,0,0,0,0.00
24470,19387932,0,0,0,-0.132115,0.036594,9.743794,0,0,0,0,0,0,0.00
24474,19387962,0,0,0,-0.117649,0.046235,9.762851,0,0,0,0,0,0,0.00
24478,19388002,0,0,0,-0.112883,0.051044,9.762806,0,0,0,0,0,0,0.00
24482,19388041,0,0,0,-0.103131,0.036727,9.777142,0,0,0,0,0,0,0.00
24487,19388081,0,0,0,-0.132063,0.041382,9.753377,0,0,0,0,0,0,0.00
24491,19388121,0,0,0,-0.151134,0.007783,9.743984,0,0,0,0,0,0,0.00
24496,19388160,0,0,0,-0.265068,-0.021472,9.855189,0,0,0,0,0,0,0.00
24500,19388200,0,0,0,-0.298949,-0.069498,9.778797,0,0,0,0,0,0,0.00
24504,19388240,0,0,0,-0.255523,-0.078874,9.816846,0,0,0,0,0,0,0.00
24509,19388279,0,0,0,-0.027320,-0.053872,9.618464,0,0,0,0,0,0,0.00
24513,19388319,0,0,0,-0.193787,-0.064223,9.758809,0,0,0,0,0,0,0.00
24518,19388359,0,0,0,0.168242,0.076290,9.597591,0,0,0,0,0,0,0.00
24522,19388399,0,0,0,-0.241413,0.040871,9.854910,0,0,0,0,0,0,0.00
24526,19388438,0,0,0,0.025414,0.099560,9.718522,0,0,0,0,0,0,0.00
24531,19388478,0,0,0,-0.226506,0.050512,9.931507,0,0,0,0,0,0,0.00
24535,19388518,0,0,0,-0.060164,0.080011,9.786337,0,0,0,0,0,0,0.00
24539,19388547,0,0,0,-0.050312,0.027397,9.791142,0,0,0,0,0,0,0.00
24543,19388587,0,0,0,-0.122217,0.022278,9.777310,0,0,0,0,0,0,0.00
24547,19388627,0,0,0,0.025341,0.051688,9.680236,0,0,0,0,0,0,0.00
24552,19388666,0,0,0,-0.141506,0.060486,9.782190,0,0,0,0,0,0,0.00
24556,19388706,0,0,0,0.029565,0.118730,9.646530,0,0,0,0,0,0,0.00
24561,19388746,0,0,0,-0.223001,0.122340,9.806686,0,0,0,0,0,0,0.00
24565,19388786,0,0,0,-0.032295,0.147163,9.714087,0,0,0,0,0,0,0.00
24569,19388825,0,0,0,-0.222687,0.069682,9.816360,0,0,0,0,0,0,0.00
24574,19388865,0,0,0,-0.051015,0.060907,9.719164,0,0,0,0,0,0,0.00
24578,19388905,0,0,0,-0.136449,-0.006512,9.777464,0,0,0,0,0,0,0.00
24582,19388944,0,0,0,-0.026820,0.013147,9.723851,0,0,0,0,0,0,0.00
24587,19388984,0,0,0,-0.064793,0.012969,9.767298,0,0,0,0,0,0,0.00
24591,19389024,0,0,0,-0.093907,0.041559,9.733906,0,0,0,0,0,0,0.00
24596,19389063,0,0,0,-0.155767,0.069993,9.801464,0,0,0,0,0,0,0.00
24600,19389103,0,0,0,-0.136916,0.079656,9.767738,0,0,0,0,0,0,0.00
24603,19389133,0,0,0,-0.131850,0.074892,9.801275,0,0,0,0,0,0,0.00
24608,19389173,0,0,0,-0.160650,0.050822,9.777555,0,0,0,0,0,0,0.00
24612,19389212,0,0,0,-0.060503,0.041715,9.719266,0,0,0,0,0,0,0.00
24617,19389252,0,0,0,-0.127093,0.017468,9.762968,0,0,0,0,0,0,0.00
24621,19389292,0,0,0,-0.065226,0.027330,9.719325,0,0,0,0,0,0,0.00
24625,19389331,0,0,0,-0.136742,0.017424,9.753450,0,0,0,0,0,0,0.00
24630,19389371,0,0,0,-0.107993,0.012770,9.753240,0,0,0,0,0,0,0.00
24634,19389411,0,0,0,-0.150775,0.017357,9.796715,0,0,0,0,0,0,0.00
24639,19389450,0,0,0,-0.108154,0.031919,9.743620,0,0,0,0,0,0,0.00
24643,19389490,0,0,0,-0.150870,0.022144,9.787118,0,0,0,0,0,0,0.00
24647,19389530,0,0,0,-0.088901,0.017646,9.748292,0,0,0,0,0,0,0.00
24652,19389569,0,0,0,-0.103183,0.008005,9.753211,0,0,0,0,0,0,0.00
24656,19389609,0,0,0,-0.103468,0.046302,9.738766,0,0,0,0,0,0,0.00
24659,19389639,0,0,0,-0.093601,0.022411,9.762707,0,0,0,0,0,0,0.00
24665,19389689,0,0,0,-0.117649,0.046235,9.762851,0,0,0,0,0,0,0.00
24669,19389728,0,0,0,-0.136573,0.036572,9.786986,0,0,0,0,0,0,0.00
24673,19389758,0,0,0,-0.146500,0.041315,9.743896,0,0,0,0,0,0,0.00
24677,19389798,0,0,0,-0.103088,0.003218,9.762809,0,0,0,0,0,0,0.00
24681,19389837,0,0,0,-0.089077,0.008072,9.719537,0,0,0,0,0,0,0.00
24686,19389877,0,0,0,-0.131764,0.007873,9.772610,0,0,0,0,0,0,0.00
24690,19389917,0,0,0,-0.456192,-0.075019,9.875906,0,0,0,0,0,0,0.00
24695,19389957,0,0,0,-0.017612,-0.010744,9.661480,0,0,0,0,0,0,0.00
24699,19389996,0,0,0,-0.136186,-0.040022,9.791902,0,0,0,0,0,0,0.00
24703,19390036,0,0,0,-0.108537,-0.020740,9.662186,0,0,0,0,0,0,0.00
24708,19390076,0,0,0,-0.002704,0.046768,9.766773,0,0,0,0,0,0,0.00
24712,19390115,0,0,0,-0.065202,0.094350,9.762376,0,0,0,0,0,0,0.00
24715,19390145,0,0,0,-0.112838,0.113277,9.805864,0,0,0,0,0,0,0.00
24721,19390195,0,0,0,-0.041641,0.161481,9.752500,0,0,0,0,0,0,0.00
24725,19390234,0,0,0,-0.179288,0.098605,9.873528,0,0,0,0,0,0,0.00
24730,19390274,0,0,0,-0.084294,0.089474,9.767324,0,0,0,0,0,0,0.00
