// General information: 
//  MT Manager version: 2025.0.0 
//  XDA version: 2025.0.0 build 241121001 rev 1732180523 built on 2024-11-21
// Device information: 
//  DeviceId: 0388A23E
//  ProductCode: MTi-3-8A7G6
//  Firmware Version: 1.20.1
//  Hardware Version: 5.0.0
// Device settings: 
//  Filter Profile: general(50.10)
//  Option Flags: Orientation Smoother Disabled, Position/Velocity Smoother Disabled, Continuous Zero Rotation Update Disabled, AHS Disabled, ICC Disabled
// Coordinate system: ENU
PacketCounter,SampleTimeFine,Acc_X,Acc_Y,Acc_Z,AccHR_X,AccHR_Y,AccHR_Z,Mag_X,Mag_Y,Mag_Z,Roll,Pitch,Yaw,Temperature
07093,14284182,0,0,0,-2.869573,0.052268,9.342918,0,0,0,0,0,0,0.00
07095,14284222,0,0,0,-2.859960,0.052313,9.347641,0,0,0,0,0,0,0.00
07097,14284261,0,0,0,-2.855019,0.042760,9.362004,0,0,0,0,0,0,0.00
07101,14284332,-2.861004,0.047889,9.350098,0,0,0,0.315287,-0.661978,-0.510735,0.794072,16.812263,165.393556,28.85
07104,14284381,0,0,0,-2.874600,0.080970,9.328524,0,0,0,0,0,0,0.00
07105,14284400,0,0,0,-2.860384,0.081037,9.309235,0,0,0,0,0,0,0.00
07107,14284440,0,0,0,-2.879367,0.100097,9.342916,0,0,0,0,0,0,0.00
07109,14284480,0,0,0,-2.893782,0.095243,9.333443,0,0,0,0,0,0,0.00
07114,14284559,0,0,0,-2.864857,0.076227,9.347640,0,0,0,0,0,0,0.00
07116,14284599,0,0,0,-2.874388,0.066608,9.347728,0,0,0,0,0,0,0.00
07118,14284639,0,0,0,-2.859973,0.071462,9.357202,0,0,0,0,0,0,0.00
07120,14284678,0,0,0,-2.869483,0.057055,9.357297,0,0,0,0,0,0,0.00
07123,14284738,0,0,0,-2.855261,0.047547,9.333226,0,0,0,0,0,0,0.00
07127,14284797,0,0,0,-2.879331,0.076160,9.333364,0,0,0,0,0,0,0.00
07128,14284817,0,0,0,-2.874483,0.071395,9.338130,0,0,0,0,0,0,0.00
07130,14284857,0,0,0,-2.884029,0.080926,9.347777,0,0,0,0,0,0,0.00
07132,14284897,0,0,0,-2.884154,0.100075,9.342953,0,0,0,0,0,0,0.00
07134,14284936,0,0,0,-2.869718,0.076204,9.338086,0,0,0,0,0,0,0.00
07137,14284976,0,0,0,-2.865041,0.076227,9.323664,0,0,0,0,0,0,0.00
07139,14285016,0,0,0,-2.893605,0.080881,9.347850,0,0,0,0,0,0,0.00
07141,14285055,0,0,0,-2.860171,0.066675,9.328438,0,0,0,0,0,0,0.00
07143,14285095,0,0,0,-2.869323,0.037906,9.366917,0,0,0,0,0,0,0.00
07145,14285135,0,0,0,-2.845590,0.042805,9.342752,0,0,0,0,0,0,0.00
07148,14285174,0,0,0,-2.840742,0.038039,9.347518,0,0,0,0,0,0,0.00
07150,14285214,0,0,0,-2.874425,0.066608,9.342933,0,0,0,0,0,0,0.00
07152,14285254,0,0,0,-2.888987,0.085690,9.328626,0,0,0,0,0,0,0.00
07154,14285294,0,0,0,-2.888884,0.095265,9.347792,0,0,0,0,0,0,0.00
07156,14285333,0,0,0,-2.888906,0.076116,9.333436,0,0,0,0,0,0,0.00
07159,14285373,0,0,0,-2.869674,0.066630,9.338101,0,0,0,0,0,0,0.00
07161,14285413,0,0,0,-2.893628,0.061732,9.333495,0,0,0,0,0,0,0.00
07162,14285432,0,0,0,-2.874469,0.076182,9.342917,0,0,0,0,0,0,0.00
07164,14285472,0,0,0,-2.879185,0.052224,9.338196,0,0,0,0,0,0,0.00
07166,14285512,0,0,0,-2.850310,0.052358,9.357158,0,0,0,0,0,0,0.00
07169,14285552,0,0,0,-2.845487,0.052380,9.361917,0,0,0,0,0,0,0.00
07171,14285591,0,0,0,-2.845603,0.061954,9.352312,0,0,0,0,0,0,0.00
07173,14285631,0,0,0,-2.874491,0.080970,9.342910,0,0,0,0,0,0,0.00
07175,14285671,0,0,0,-2.845786,0.085891,9.342685,0,0,0,0,0,0,0.00
07177,14285710,0,0,0,-2.898459,0.095222,9.347864,0,0,0,0,0,0,0.00
07180,14285750,0,0,0,-2.884095,0.095288,9.347755,0,0,0,0,0,0,0.00
07182,14285790,0,0,0,-2.864938,0.085802,9.342831,0,0,0,0,0,0,0.00
07184,14285829,0,0,0,-2.874366,0.061821,9.347735,0,0,0,0,0,0,0.00
07186,14285869,0,0,0,-2.864726,0.047503,9.347685,0,0,0,0,0,0,0.00
07188,14285909,0,0,0,-2.850574,0.061933,9.328372,0,0,0,0,0,0,0.00
07190,14285932,-2.872323,0.056149,9.342594,0,0,0,0.316249,-0.661001,-0.508712,0.786076,16.818683,165.394434,28.85
07193,14285988,0,0,0,-2.836174,0.061998,9.333059,0,0,0,0,0,0,0.00
07195,14286028,0,0,0,-2.869586,0.071417,9.352479,0,0,0,0,0,0,0.00
07197,14286068,0,0,0,-2.879315,0.080948,9.338151,0,0,0,0,0,0,0.00
07199,14286107,0,0,0,-2.874638,0.080970,9.323729,0,0,0,0,0,0,0.00
07201,14286132,-2.880269,0.076461,9.341869,0,0,0,0.316792,-0.662958,-0.511735,0.786112,16.820477,165.396170,28.85
07204,14286187,0,0,0,-2.883986,0.071351,9.347793,0,0,0,0,0,0,0.00
07206,14286226,0,0,0,-2.869769,0.071417,9.328503,0,0,0,0,0,0,0.00
07208,14286266,0,0,0,-2.898379,0.061710,9.338326,0,0,0,0,0,0,0.00
07211,14286326,0,0,0,-2.884110,0.066565,9.328619,0,0,0,0,0,0,0.00
07215,14286385,0,0,0,-2.850274,0.052358,9.361953,0,0,0,0,0,0,0.00
07216,14286405,0,0,0,-2.821656,0.052490,9.347350,0,0,0,0,0,0,0.00
07218,14286445,0,0,0,-2.859938,0.047525,9.347649,0,0,0,0,0,0,0.00
07220,14286484,0,0,0,-2.860046,0.071462,9.347611,0,0,0,0,0,0,0.00
07225,14286564,0,0,0,-2.883993,0.080926,9.352572,0,0,0,0,0,0,0.00
07227,14286603,0,0,0,-2.864996,0.090590,9.338028,0,0,0,0,0,0,0.00
07229,14286643,0,0,0,-2.860420,0.081037,9.304440,0,0,0,0,0,0,0.00
07231,14286683,0,0,0,-2.879258,0.052224,9.328605,0,0,0,0,0,0,0.00
07233,14286723,0,0,0,-2.850581,0.071507,9.333153,0,0,0,0,0,0,0.00
07236,14286762,0,0,0,-2.869431,0.061843,9.366879,0,0,0,0,0,0,0.00
07237,14286782,0,0,0,-2.864579,0.047503,9.366865,0,0,0,0,0,0,0.00
07239,14286822,0,0,0,-2.826392,0.057256,9.356970,0,0,0,0,0,0,0.00
07241,14286862,0,0,0,-2.874287,0.052246,9.352545,0,0,0,0,0,0,0.00
07243,14286901,0,0,0,-2.874491,0.057034,9.328562,0,0,0,0,0,0,0.00
07246,14286941,0,0,0,-2.879331,0.076160,9.333364,0,0,0,0,0,0,0.00
07248,14286981,0,0,0,-2.893855,0.095243,9.323852,0,0,0,0,0,0,0.00
07250,14287020,0,0,0,-2.879389,0.080948,9.328560,0,0,0,0,0,0,0.00
07252,14287060,0,0,0,-2.860237,0.081037,9.328415,0,0,0,0,0,0,0.00
07254,14287100,0,0,0,-2.884030,0.056990,9.333430,0,0,0,0,0,0,0.00
07256,14287139,0,0,0,-2.869667,0.057055,9.333322,0,0,0,0,0,0,0.00
07259,14287179,0,0,0,-2.864659,0.057078,9.362056,0,0,0,0,0,0,0.00
07261,14287219,0,0,0,-2.859871,0.057100,9.362020,0,0,0,0,0,0,0.00
07263,14287258,0,0,0,-2.864717,0.061866,9.357253,0,0,0,0,0,0,0.00
07265,14287298,0,0,0,-2.850500,0.061933,9.337963,0,0,0,0,0,0,0.00
07267,14287338,0,0,0,-2.888877,0.085690,9.343012,0,0,0,0,0,0,0.00
07270,14287378,0,0,0,-2.888877,0.085690,9.343012,0,0,0,0,0,0,0.00
07272,14287417,0,0,0,-2.893744,0.095243,9.338238,0,0,0,0,0,0,0.00
07274,14287457,0,0,0,-2.845889,0.076316,9.323518,0,0,0,0,0,0,0.00
07276,14287497,0,0,0,-2.908014,0.066453,9.333597,0,0,0,0,0,0,0.00
07278,14287536,0,0,0,-2.879265,0.061799,9.333386,0,0,0,0,0,0,0.00
07281,14287576,0,0,0,-2.869578,0.061843,9.347699,0,0,0,0,0,0,0.00
07283,14287616,0,0,0,-2.835932,0.057211,9.361837,0,0,0,0,0,0,0.00
07284,14287636,0,0,0,-2.845377,0.052380,9.376303,0,0,0,0,0,0,0.00
07286,14287675,0,0,0,-2.855068,0.061910,9.366770,0,0,0,0,0,0,0.00
07288,14287715,0,0,0,-2.850427,0.061933,9.347553,0,0,0,0,0,0,0.00
07291,14287755,0,0,0,-2.879140,0.066586,9.352559,0,0,0,0,0,0,0.00
07293,14287794,0,0,0,-2.893716,0.080881,9.333465,0,0,0,0,0,0,0.00
07295,14287834,0,0,0,-2.874703,0.095332,9.323707,0,0,0,0,0,0,0.00
07297,14287874,0,0,0,-2.874813,0.095332,9.309321,0,0,0,0,0,0,0.00
07299,14287913,0,0,0,-2.884257,0.090501,9.323787,0,0,0,0,0,0,0.00
07302,14287953,0,0,0,-2.879309,0.071373,9.333371,0,0,0,0,0,0,0.00
07304,14287993,0,0,0,-2.864631,0.042716,9.357283,0,0,0,0,0,0,0.00
07306,14288032,0,0,0,-2.855105,0.061910,9.361975,0,0,0,0,0,0,0.00
07308,14288072,0,0,0,-2.835815,0.047636,9.371443,0,0,0,0,0,0,0.00
07310,14288112,0,0,0,-2.860040,0.061888,9.342832,0,0,0,0,0,0,0.00
07313,14288152,0,0,0,-2.879169,0.057012,9.342984,0,0,0,0,0,0,0.00
07315,14288191,0,0,0,-2.874520,0.071395,9.333335,0,0,0,0,0,0,0.00
07317,14288231,0,0,0,-2.898687,0.080859,9.309525,0,0,0,0,0,0,0.00
07319,14288271,0,0,0,-2.869777,0.080992,9.333283,0,0,0,0,0,0,0.00
07321,14288310,0,0,0,-2.865187,0.100163,9.318831,0,0,0,0,0,0,0.00
07323,14288332,-2.873161,0.089394,9.322601,0,0,0,0.315273,-0.660488,-0.510217,0.781043,16.826103,165.400022,28.85
07326,14288390,0,0,0,-2.860142,0.076249,9.338014,0,0,0,0,0,0,0.00
07328,14288429,0,0,0,-2.855209,0.052335,9.342809,0,0,0,0,0,0,0.00
07330,14288469,0,0,0,-2.864609,0.037929,9.357290,0,0,0,0,0,0,0.00
07332,14288509,0,0,0,-2.854975,0.033186,9.362020,0,0,0,0,0,0,0.00
07333,14288529,0,0,0,-2.826451,0.062043,9.352167,0,0,0,0,0,0,0.00
07336,14288568,0,0,0,-2.883972,0.052202,9.338232,0,0,0,0,0,0,0.00
07338,14288608,0,0,0,-2.888811,0.071328,9.343034,0,0,0,0,0,0,0.00
07340,14288648,0,0,0,-2.869908,0.085779,9.318891,0,0,0,0,0,0,0.00
07344,14288727,0,0,0,-2.879542,0.090523,9.314160,0,0,0,0,0,0,0.00
07347,14288767,0,0,0,-2.879426,0.080948,9.323765,0,0,0,0,0,0,0.00
07349,14288807,0,0,0,-2.879316,0.057012,9.323803,0,0,0,0,0,0,0.00
07351,14288846,0,0,0,-2.869447,0.057055,9.362092,0,0,0,0,0,0,0.00
07353,14288886,0,0,0,-2.859725,0.033164,9.366852,0,0,0,0,0,0,0.00
07355,14288926,0,0,0,-2.859776,0.028377,9.357269,0,0,0,0,0,0,0.00
07358,14288965,0,0,0,-2.859931,0.037951,9.342869,0,0,0,0,0,0,0.00
07360,14289005,0,0,0,-2.869609,0.052268,9.338123,0,0,0,0,0,0,0.00
07362,14289045,0,0,0,-2.908138,0.085602,9.328772,0,0,0,0,0,0,0.00
07364,14289084,0,0,0,-2.879528,0.095310,9.318948,0,0,0,0,0,0,0.00
07366,14289124,0,0,0,-2.884477,0.114437,9.309363,0,0,0,0,0,0,0.00
07369,14289164,0,0,0,-2.879719,0.104884,9.299752,0,0,0,0,0,0,0.00
07370,14289184,0,0,0,-2.879638,0.095310,9.304563,0,0,0,0,0,0,0.00
07372,14289223,0,0,0,-2.865033,0.090590,9.333233,0,0,0,0,0,0,0.00
07374,14289263,0,0,0,-2.879162,0.071373,9.352551,0,0,0,0,0,0,0.00
07376,14289303,0,0,0,-2.840523,0.038039,9.376289,0,0,0,0,0,0,0.00
07379,14289342,0,0,0,-2.840719,0.057189,9.361874,0,0,0,0,0,0,0.00
07381,14289382,0,0,0,-2.854770,0.028399,9.386003,0,0,0,0,0,0,0.00
07383,14289422,0,0,0,-2.855041,0.047547,9.361997,0,0,0,0,0,0,0.00
07385,14289462,0,0,0,-2.898387,0.071284,9.343106,0,0,0,0,0,0,0.00
07387,14289501,0,0,0,-2.869945,0.085779,9.314095,0,0,0,0,0,0,0.00
07389,14289532,-2.883391,0.074896,9.330066,0,0,0,0.316252,-0.661500,-0.508718,0.773867,16.831057,165.398409,28.85
07392,14289581,0,0,0,-2.874842,0.109694,9.314094,0,0,0,0,0,0,0.00
07394,14289620,0,0,0,-2.869894,0.090567,9.323678,0,0,0,0,0,0,0.00
07396,14289660,0,0,0,-2.884045,0.076138,9.342990,0,0,0,0,0,0,0.00
07398,14289700,0,0,0,-2.879016,0.047437,9.357384,0,0,0,0,0,0,0.00
07400,14289739,0,0,0,-2.854981,0.042760,9.366799,0,0,0,0,0,0,0.00
07403,14289779,0,0,0,-2.869257,0.047481,9.381288,0,0,0,0,0,0,0.00
07405,14289819,0,0,0,-2.864748,0.052291,9.347677,0,0,0,0,0,0,0.00
07407,14289858,0,0,0,-2.888774,0.071328,9.347829,0,0,0,0,0,0,0.00
07411,14289938,0,0,0,-2.869908,0.085779,9.318891,0,0,0,0,0,0,0.00
07414,14289978,0,0,0,-2.865290,0.090590,9.299666,0,0,0,0,0,0,0.00
07415,14289997,0,0,0,-2.879520,0.085735,9.314168,0,0,0,0,0,0,0.00
07417,14290037,0,0,0,-2.898401,0.066498,9.338319,0,0,0,0,0,0,0.00
07419,14290077,0,0,0,-2.893672,0.071306,9.333480,0,0,0,0,0,0,0.00
07421,14290116,0,0,0,-2.864880,0.057078,9.333285,0,0,0,0,0,0,0.00
07424,14290156,0,0,0,-2.864653,0.047503,9.357275,0,0,0,0,0,0,0.00
07426,14290196,0,0,0,-2.874154,0.047459,9.366938,0,0,0,0,0,0,0.00
07428,14290236,0,0,0,-2.855164,0.066697,9.357172,0,0,0,0,0,0,0.00
07430,14290275,0,0,0,-2.883890,0.066565,9.357390,0,0,0,0,0,0,0.00
07432,14290315,0,0,0,-2.864901,0.085802,9.347626,0,0,0,0,0,0,0.00
07435,14290355,0,0,0,-2.860164,0.081037,9.338006,0,0,0,0,0,0,0.00
07437,14290394,0,0,0,-2.874644,0.090545,9.328509,0,0,0,0,0,0,0.00
07439,14290434,0,0,0,-2.879367,0.076160,9.328568,0,0,0,0,0,0,0.00
07441,14290474,0,0,0,-2.874549,0.085757,9.338108,0,0,0,0,0,0,0.00
07443,14290513,0,0,0,-2.907882,0.061666,9.347990,0,0,0,0,0,0,0.00
07444,14290533,0,0,0,-2.879272,0.071373,9.338166,0,0,0,0,0,0,0.00
07448,14290593,0,0,0,-2.874292,0.061821,9.357326,0,0,0,0,0,0,0.00
07449,14290613,0,0,0,-2.874270,0.057034,9.357333,0,0,0,0,0,0,0.00
07451,14290652,0,0,0,-2.879148,0.052224,9.342991,0,0,0,0,0,0,0.00
07453,14290692,0,0,0,-2.864902,0.061866,9.333278,0,0,0,0,0,0,0.00
07455,14290732,0,0,0,-2.874439,0.061821,9.338145,0,0,0,0,0,0,0.00
07458,14290771,0,0,0,-2.864923,0.090590,9.347618,0,0,0,0,0,0,0.00
07460,14290811,0,0,0,-2.874578,0.076182,9.328531,0,0,0,0,0,0,0.00
07462,14290851,0,0,0,-2.864879,0.081015,9.347632,0,0,0,0,0,0,0.00
07464,14290891,0,0,0,-2.860171,0.090611,9.342787,0,0,0,0,0,0,0.00
07466,14290930,0,0,0,-2.859995,0.076249,9.357194,0,0,0,0,0,0,0.00
07469,14290970,0,0,0,-2.883905,0.061777,9.352603,0,0,0,0,0,0,0.00
07471,14291010,0,0,0,-2.859879,0.042738,9.352451,0,0,0,0,0,0,0.00
07473,14291049,0,0,0,-2.874292,0.061821,9.357326,0,0,0,0,0,0,0.00
07475,14291089,0,0,0,-2.860120,0.071462,9.338021,0,0,0,0,0,0,0.00
07477,14291129,0,0,0,-2.884126,0.061777,9.323832,0,0,0,0,0,0,0.00
07480,14291168,0,0,0,-2.879542,0.090523,9.314160,0,0,0,0,0,0,0.00
07482,14291208,0,0,0,-2.869923,0.080992,9.314102,0,0,0,0,0,0,0.00
07484,14291248,0,0,0,-2.884198,0.085713,9.328589,0,0,0,0,0,0,0.00
07486,14291287,0,0,0,-2.874469,0.076182,9.342917,0,0,0,0,0,0,0.00
07488,14291327,0,0,0,-2.879111,0.052224,9.347786,0,0,0,0,0,0,0.00
07491,14291367,0,0,0,-2.869586,0.071417,9.352479,0,0,0,0,0,0,0.00
07492,14291387,0,0,0,-2.869470,0.037906,9.347736,0,0,0,0,0,0,0.00
07494,14291426,0,0,0,-2.855209,0.052335,9.342809,0,0,0,0,0,0,0.00
07496,14291466,0,0,0,-2.879258,0.066574,9.338185,0,0,0,0,0,0,0.00
07498,14291506,0,0,0,-2.860092,0.071450,9.342828,0,0,0,0,0,0,0.00
07501,14291545,0,0,0,-2.879346,0.085723,9.338156,0,0,0,0,0,0,0.00
07503,14291585,0,0,0,-2.893878,0.090444,9.319077,0,0,0,0,0,0,0.00
07505,14291625,0,0,0,-2.850780,0.081069,9.313969,0,0,0,0,0,0,0.00
07507,14291665,0,0,0,-2.874639,0.095320,9.333309,0,0,0,0,0,0,0.00
07509,14291704,0,0,0,-2.864902,0.076216,9.342856,0,0,0,0,0,0,0.00
07512,14291744,0,0,0,-2.855261,0.061897,9.342807,0,0,0,0,0,0,0.00
07514,14291784,0,0,0,-2.883629,0.047402,9.381408,0,0,0,0,0,0,0.00
07516,14291823,0,0,0,-2.864727,0.037917,9.342916,0,0,0,0,0,0,0.00
07518,14291863,0,0,0,-2.859989,0.057088,9.347646,0,0,0,0,0,0,0.00
07520,14291903,0,0,0,-2.879200,0.061787,9.342988,0,0,0,0,0,0,0.00
07522,14291932,-2.864520,0.052339,9.346981,0,0,0,0.317264,-0.661977,-0.510217,0.757824,16.837907,165.400463,28.86
07525,14291982,0,0,0,-2.879478,0.090510,9.323763,0,0,0,0,0,0,0.00
07527,14292022,0,0,0,-2.889003,0.095253,9.333418,0,0,0,0,0,0,0.00
07529,14292062,0,0,0,-2.879499,0.095298,9.323755,0,0,0,0,0,0,0.00
07531,14292101,0,0,0,-2.874455,0.071383,9.342937,0,0,0,0,0,0,0.00
07533,14292132,-2.880257,0.079586,9.333803,0,0,0,0.317296,-0.663449,-0.512237,0.759694,16.839018,165.403887,28.86
07536,14292181,0,0,0,-2.874345,0.071383,9.357323,0,0,0,0,0,0,0.00
07538,14292220,0,0,0,-2.874236,0.047446,9.357360,0,0,0,0,0,0,0.00
07539,14292240,0,0,0,-2.859910,0.047513,9.352456,0,0,0,0,0,0,0.00
07543,14292320,0,0,0,-2.869455,0.057043,9.362104,0,0,0,0,0,0,0.00
07546,14292359,0,0,0,-2.879280,0.071362,9.338178,0,0,0,0,0,0,0.00
07548,14292399,0,0,0,-2.869836,0.076193,9.323712,0,0,0,0,0,0,0.00
07550,14292439,0,0,0,-2.870056,0.100129,9.309289,0,0,0,0,0,0,0.00
07552,14292478,0,0,0,-2.884105,0.071340,9.333419,0,0,0,0,0,0,0.00
07557,14292558,0,0,0,-2.874294,0.052234,9.352558,0,0,0,0,0,0,0.00
07559,14292597,0,0,0,-2.864784,0.066641,9.352463,0,0,0,0,0,0,0.00
07561,14292637,0,0,0,-2.836028,0.052411,9.347471,0,0,0,0,0,0,0.00
07563,14292677,0,0,0,-2.874390,0.057021,9.342959,0,0,0,0,0,0,0.00
07564,14292697,0,0,0,-2.850348,0.066708,9.361943,0,0,0,0,0,0,0.00
07566,14292736,0,0,0,-2.855231,0.071472,9.352383,0,0,0,0,0,0,0.00
07569,14292776,0,0,0,-2.879156,0.052212,9.343003,0,0,0,0,0,0,0.00
07571,14292816,0,0,0,-2.879222,0.066574,9.342980,0,0,0,0,0,0,0.00
07573,14292855,0,0,0,-2.884163,0.076127,9.328616,0,0,0,0,0,0,0.00
07575,14292895,0,0,0,-2.893856,0.085656,9.319084,0,0,0,0,0,0,0.00
07577,14292935,0,0,0,-2.874595,0.085745,9.333324,0,0,0,0,0,0,0.00
07580,14292974,0,0,0,-2.874426,0.080957,9.352512,0,0,0,0,0,0,0.00
07582,14293014,0,0,0,-2.884002,0.080914,9.352585,0,0,0,0,0,0,0.00
07584,14293054,0,0,0,-2.850391,0.052345,9.347580,0,0,0,0,0,0,0.00
07586,14293094,0,0,0,-2.888578,0.042593,9.357476,0,0,0,0,0,0,0.00
07588,14293133,0,0,0,-2.864711,0.066641,9.362053,0,0,0,0,0,0,0.00
07591,14293173,0,0,0,-2.855106,0.052322,9.357208,0,0,0,0,0,0,0.00
07593,14293213,0,0,0,-2.865019,0.085790,9.333252,0,0,0,0,0,0,0.00
07595,14293252,0,0,0,-2.879354,0.071362,9.328588,0,0,0,0,0,0,0.00
07597,14293292,0,0,0,-2.874551,0.076171,9.333339,0,0,0,0,0,0,0.00
07599,14293332,0,0,0,-2.874521,0.061809,9.328567,0,0,0,0,0,0,0.00
07602,14293371,0,0,0,-2.874411,0.085745,9.357301,0,0,0,0,0,0,0.00
07604,14293411,0,0,0,-2.850443,0.071495,9.352345,0,0,0,0,0,0,0.00
07606,14293451,0,0,0,-2.840853,0.052389,9.342712,0,0,0,0,0,0,0.00
07608,14293491,0,0,0,-2.874338,0.061809,9.352543,0,0,0,0,0,0,0.00
07610,14293530,0,0,0,-2.869633,0.047468,9.333347,0,0,0,0,0,0,0.00
07613,14293570,0,0,0,-2.859864,0.061875,9.366819,0,0,0,0,0,0,0.00
07614,14293590,0,0,0,-2.879163,0.061787,9.347783,0,0,0,0,0,0,0.00
07616,14293629,0,0,0,-2.879273,0.061787,9.333398,0,0,0,0,0,0,0.00
07618,14293669,0,0,0,-2.869800,0.076193,9.328507,0,0,0,0,0,0,0.00
07620,14293709,0,0,0,-2.874623,0.076171,9.323749,0,0,0,0,0,0,0.00
07623,14293749,0,0,0,-2.874536,0.080957,9.338126,0,0,0,0,0,0,0.00
07625,14293788,0,0,0,-2.888864,0.080891,9.343030,0,0,0,0,0,0,0.00
07627,14293828,0,0,0,-2.850398,0.085856,9.366709,0,0,0,0,0,0,0.00
07629,14293868,0,0,0,-2.855158,0.071472,9.361973,0,0,0,0,0,0,0.00
07631,14293907,0,0,0,-2.860150,0.076238,9.338025,0,0,0,0,0,0,0.00
07634,14293947,0,0,0,-2.874273,0.047446,9.352565,0,0,0,0,0,0,0.00
07636,14293987,0,0,0,-2.864762,0.061853,9.352470,0,0,0,0,0,0,0.00
07638,14294026,0,0,0,-2.860026,0.057088,9.342851,0,0,0,0,0,0,0.00
07640,14294066,0,0,0,-2.874352,0.057021,9.347754,0,0,0,0,0,0,0.00
07642,14294106,0,0,0,-2.855473,0.076260,9.323604,0,0,0,0,0,0,0.00
07644,14294132,-2.869494,0.065459,9.334315,0,0,0,0.317777,-0.662960,-0.511225,0.750831,16.847085,165.406293,28.86
07647,14294185,0,0,0,-2.879427,0.095298,9.333345,0,0,0,0,0,0,0.00
07649,14294225,0,0,0,-2.869748,0.080979,9.338090,0,0,0,0,0,0,0.00
07651,14294265,0,0,0,-2.874367,0.076171,9.357315,0,0,0,0,0,0,0.00
07653,14294304,0,0,0,-2.869690,0.076193,9.342893,0,0,0,0,0,0,0.00
07655,14294332,-2.878555,0.073782,9.348227,0,0,0,0.319258,-0.662961,-0.510712,0.749284,16.846250,165.407909,28.86
07658,14294384,0,0,0,-2.879397,0.080935,9.328572,0,0,0,0,0,0,0.00
07660,14294423,0,0,0,-2.860194,0.061875,9.323663,0,0,0,0,0,0,0.00
07662,14294463,0,0,0,-2.879185,0.066574,9.347775,0,0,0,0,0,0,0.00
07666,14294532,-2.865584,0.065346,9.332083,0,0,0,0.319326,-0.665401,-0.515247,0.747968,16.848121,165.407534,28.86
07668,14294562,0,0,0,-2.883972,0.066552,9.347812,0,0,0,0,0,0,0.00
07670,14294602,0,0,0,-2.874426,0.080957,9.352512,0,0,0,0,0,0,0.00
07672,14294642,0,0,0,-2.874360,0.066596,9.352535,0,0,0,0,0,0,0.00
07674,14294681,0,0,0,-2.898241,0.061698,9.357520,0,0,0,0,0,0,0.00
07679,14294761,0,0,0,-2.893563,0.061720,9.343097,0,0,0,0,0,0,0.00
07681,14294800,0,0,0,-2.879273,0.061787,9.333398,0,0,0,0,0,0,0.00
07683,14294840,0,0,0,-2.865047,0.076216,9.323676,0,0,0,0,0,0,0.00
07685,14294880,0,0,0,-2.879163,0.085723,9.362132,0,0,0,0,0,0,0.00
07690,14294959,0,0,0,-2.855217,0.052322,9.342822,0,0,0,0,0,0,0.00
07692,14294999,0,0,0,-2.874257,0.052234,9.357353,0,0,0,0,0,0,0.00
07694,14295039,0,0,0,-2.850465,0.076283,9.352338,0,0,0,0,0,0,0.00
07695,14295058,0,0,0,-2.869499,0.066618,9.362089,0,0,0,0,0,0,0.00
07697,14295098,0,0,0,-2.869668,0.071405,9.342900,0,0,0,0,0,0,0.00
07699,14295138,0,0,0,-2.860180,0.066663,9.328450,0,0,0,0,0,0,0.00
07702,14295178,0,0,0,-2.884185,0.080914,9.328609,0,0,0,0,0,0,0.00
07704,14295217,0,0,0,-2.869865,0.090554,9.328485,0,0,0,0,0,0,0.00
07706,14295257,0,0,0,-2.874697,0.100107,9.328506,0,0,0,0,0,0,0.00
07708,14295297,0,0,0,-2.874609,0.080957,9.328536,0,0,0,0,0,0,0.00
07710,14295336,0,0,0,-2.865026,0.071428,9.323684,0,0,0,0,0,0,0.00
07713,14295376,0,0,0,-2.850428,0.076283,9.357133,0,0,0,0,0,0,0.00
07715,14295416,0,0,0,-2.840933,0.061964,9.337902,0,0,0,0,0,0,0.00
07717,14295455,0,0,0,-2.869543,0.076193,9.362074,0,0,0,0,0,0,0.00
07719,14295495,0,0,0,-2.860077,0.076238,9.347615,0,0,0,0,0,0,0.00
07721,14295535,0,0,0,-2.893548,0.066507,9.347884,0,0,0,0,0,0,0.00
07724,14295574,0,0,0,-2.869836,0.076193,9.323712,0,0,0,0,0,0,0.00
07726,14295614,0,0,0,-2.874623,0.076171,9.323749,0,0,0,0,0,0,0.00
07728,14295654,0,0,0,-2.874551,0.076171,9.333339,0,0,0,0,0,0,0.00
07730,14295694,0,0,0,-2.860224,0.076238,9.328435,0,0,0,0,0,0,0.00
07732,14295733,0,0,0,-2.860114,0.076238,9.342820,0,0,0,0,0,0,0.00
07735,14295773,0,0,0,-2.864858,0.066641,9.342872,0,0,0,0,0,0,0.00
07737,14295813,0,0,0,-2.864806,0.071428,9.352455,0,0,0,0,0,0,0.00
07739,14295852,0,0,0,-2.855165,0.057110,9.352406,0,0,0,0,0,0,0.00
07741,14295892,0,0,0,-2.859960,0.090599,9.371570,0,0,0,0,0,0,0.00
07742,14295912,0,0,0,-2.855458,0.081046,9.328391,0,0,0,0,0,0,0.00
07745,14295952,0,0,0,-2.888834,0.066529,9.338258,0,0,0,0,0,0,0.00
07747,14295991,0,0,0,-2.874623,0.076171,9.323749,0,0,0,0,0,0,0.00
07749,14296031,0,0,0,-2.865026,0.071428,9.323684,0,0,0,0,0,0,0.00
07751,14296071,0,0,0,-2.884236,0.076127,9.319026,0,0,0,0,0,0,0.00
07753,14296110,0,0,0,-2.869895,0.080979,9.318910,0,0,0,0,0,0,0.00
07756,14296150,0,0,0,-2.884207,0.085701,9.328602,0,0,0,0,0,0,0.00
07758,14296190,0,0,0,-2.869851,0.071405,9.318925,0,0,0,0,0,0,0.00
07760,14296229,0,0,0,-2.869807,0.085767,9.333288,0,0,0,0,0,0,0.00
07762,14296269,0,0,0,-2.883936,0.066552,9.352608,0,0,0,0,0,0,0.00
07764,14296309,0,0,0,-2.855208,0.090621,9.366738,0,0,0,0,0,0,0.00
07766,14296332,-2.870831,0.075961,9.352784,0,0,0,0.320309,-0.665907,-0.514242,0.738478,16.852344,165.411709,28.86
07769,14296388,0,0,0,-2.879133,0.071362,9.357359,0,0,0,0,0,0,0.00
07771,14296428,0,0,0,-2.874521,0.061809,9.328567,0,0,0,0,0,0,0.00
07773,14296468,0,0,0,-2.879258,0.066574,9.338185,0,0,0,0,0,0,0.00
07775,14296507,0,0,0,-2.869726,0.076193,9.338098,0,0,0,0,0,0,0.00
07777,14296532,-2.872543,0.066292,9.330223,0,0,0,0.318296,-0.664942,-0.512245,0.739737,16.854506,165.411638,28.86
07780,14296587,0,0,0,-2.860063,0.057088,9.338056,0,0,0,0,0,0,0.00
07782,14296626,0,0,0,-2.864858,0.066641,9.342872,0,0,0,0,0,0,0.00
07784,14296666,0,0,0,-2.864923,0.081002,9.342849,0,0,0,0,0,0,0.00
07788,14296732,-2.874076,0.077105,9.340206,0,0,0,0.317337,-0.665414,-0.514763,0.738247,16.855496,165.411581,28.86
07791,14296785,0,0,0,-2.874390,0.057021,9.342959,0,0,0,0,0,0,0.00
07792,14296805,0,0,0,-2.874543,0.066596,9.328559,0,0,0,0,0,0,0.00
07794,14296845,0,0,0,-2.879222,0.066574,9.342980,0,0,0,0,0,0,0.00
07796,14296884,0,0,0,-2.855202,0.057110,9.347610,0,0,0,0,0,0,0.00
07801,14296964,0,0,0,-2.869726,0.052256,9.323750,0,0,0,0,0,0,0.00
07803,14297004,0,0,0,-2.874609,0.080957,9.328536,0,0,0,0,0,0,0.00
07805,14297043,0,0,0,-2.870034,0.095342,9.309297,0,0,0,0,0,0,0.00
07807,14297083,0,0,0,-2.874623,0.100107,9.338097,0,0,0,0,0,0,0.00
07812,14297162,0,0,0,-2.869712,0.080979,9.342885,0,0,0,0,0,0,0.00
07813,14297182,0,0,0,-2.879141,0.080935,9.362139,0,0,0,0,0,0,0.00
07815,14297222,0,0,0,-2.855319,0.066685,9.338004,0,0,0,0,0,0,0.00
07817,14297262,0,0,0,-2.879025,0.047424,9.357396,0,0,0,0,0,0,0.00
07819,14297301,0,0,0,-2.855106,0.052322,9.357208,0,0,0,0,0,0,0.00
07821,14297332,-2.866146,0.055413,9.346196,0,0,0,0.318297,-0.663938,-0.512734,0.734778,16.855542,165.412390,28.86
07824,14297381,0,0,0,-2.864740,0.057066,9.352478,0,0,0,0,0,0,0.00
07826,14297420,0,0,0,-2.864865,0.052279,9.333304,0,0,0,0,0,0,0.00
07828,14297460,0,0,0,-2.879280,0.071362,9.338178,0,0,0,0,0,0,0.00
07830,14297500,0,0,0,-2.888944,0.090466,9.338221,0,0,0,0,0,0,0.00
07832,14297539,0,0,0,-2.874434,0.066596,9.342944,0,0,0,0,0,0,0.00
07835,14297579,0,0,0,-2.893739,0.076082,9.328689,0,0,0,0,0,0,0.00
07837,14297619,0,0,0,-2.864960,0.057066,9.323707,0,0,0,0,0,0,0.00
07839,14297658,0,0,0,-2.898323,0.047336,9.338361,0,0,0,0,0,0,0.00
07843,14297738,0,0,0,-2.860041,0.052300,9.338063,0,0,0,0,0,0,0.00
07846,14297778,0,0,0,-2.874396,0.066596,9.347739,0,0,0,0,0,0,0.00
07847,14297797,0,0,0,-2.874323,0.066596,9.357330,0,0,0,0,0,0,0.00
07849,14297837,0,0,0,-2.855436,0.076260,9.328399,0,0,0,0,0,0,0.00
07851,14297877,0,0,0,-2.879280,0.095298,9.352527,0,0,0,0,0,0,0.00
07853,14297916,0,0,0,-2.874514,0.076171,9.338134,0,0,0,0,0,0,0.00
07856,14297956,0,0,0,-2.869770,0.085767,9.338083,0,0,0,0,0,0,0.00
07858,14297996,0,0,0,-2.850582,0.085856,9.342732,0,0,0,0,0,0,0.00
07860,14298036,0,0,0,-2.879236,0.061787,9.338193,0,0,0,0,0,0,0.00
07862,14298075,0,0,0,-2.869565,0.057043,9.347718,0,0,0,0,0,0,0.00
07864,14298115,0,0,0,-2.864703,0.057066,9.357273,0,0,0,0,0,0,0.00
07867,14298155,0,0,0,-2.850340,0.057133,9.357163,0,0,0,0,0,0,0.00
07869,14298194,0,0,0,-2.874331,0.052234,9.347762,0,0,0,0,0,0,0.00
07871,14298234,0,0,0,-2.879354,0.071362,9.328588,0,0,0,0,0,0,0.00
07873,14298274,0,0,0,-2.888915,0.076104,9.333447,0,0,0,0,0,0,0.00
07875,14298313,0,0,0,-2.869902,0.090554,9.323690,0,0,0,0,0,0,0.00
07877,14298332,-2.876831,0.082564,9.332980,0,0,0,0.319802,-0.663914,-0.514224,0.732187,16.862672,165.416622,28.86
07880,14298393,0,0,0,-2.855546,0.100196,9.328362,0,0,0,0,0,0,0.00
07882,14298433,0,0,0,-2.888915,0.076104,9.333447,0,0,0,0,0,0,0.00
07884,14298472,0,0,0,-2.879199,0.085723,9.357337,0,0,0,0,0,0,0.00
07886,14298512,0,0,0,-2.859791,0.061875,9.376410,0,0,0,0,0,0,0.00
07888,14298532,-2.873404,0.068106,9.357508,0,0,0,0.320306,-0.665409,-0.514236,0.727686,16.860392,165.416455,28.86
07891,14298591,0,0,0,-2.874257,0.052234,9.357353,0,0,0,0,0,0,0.00
07892,14298611,0,0,0,-2.859989,0.057088,9.347646,0,0,0,0,0,0,0.00
07894,14298651,0,0,0,-2.874485,0.061809,9.333362,0,0,0,0,0,0,0.00
07898,14298730,0,0,0,-2.874822,0.095320,9.309333,0,0,0,0,0,0,0.00
07901,14298770,0,0,0,-2.879427,0.095298,9.333345,0,0,0,0,0,0,0.00
07903,14298810,0,0,0,-2.845751,0.076304,9.342710,0,0,0,0,0,0,0.00
07905,14298849,0,0,0,-2.879339,0.076149,9.333375,0,0,0,0,0,0,0.00
07907,14298889,0,0,0,-2.878915,0.047424,9.371781,0,0,0,0,0,0,0.00
07912,14298968,0,0,0,-2.864521,0.033130,9.366900,0,0,0,0,0,0,0.00
07914,14299008,0,0,0,-2.859712,0.028364,9.366872,0,0,0,0,0,0,0.00
07915,14299028,0,0,0,-2.864771,0.047491,9.342901,0,0,0,0,0,0,0.00
07917,14299068,0,0,0,-2.879222,0.066574,9.342980,0,0,0,0,0,0,0.00
07919,14299107,0,0,0,-2.860399,0.090599,9.314028,0,0,0,0,0,0,0.00
07922,14299147,0,0,0,-2.879778,0.124022,9.304529,0,0,0,0,0,0,0.00
07924,14299187,0,0,0,-2.869873,0.100129,9.333265,0,0,0,0,0,0,0.00
07926,14299226,0,0,0,-2.850780,0.105006,9.328317,0,0,0,0,0,0,0.00
07928,14299266,0,0,0,-2.893535,0.047358,9.338324,0,0,0,0,0,0,0.00
07930,14299306,0,0,0,-2.864784,0.066641,9.352463,0,0,0,0,0,0,0.00
07933,14299346,0,0,0,-2.883776,0.047402,9.362227,0,0,0,0,0,0,0.00
07935,14299385,0,0,0,-2.845466,0.038006,9.357157,0,0,0,0,0,0,0.00
07937,14299425,0,0,0,-2.864820,0.066641,9.347667,0,0,0,0,0,0,0.00
07939,14299465,0,0,0,-2.860004,0.052300,9.342858,0,0,0,0,0,0,0.00
07941,14299504,0,0,0,-2.884024,0.061765,9.338229,0,0,0,0,0,0,0.00
07943,14299532,-2.874503,0.060720,9.341228,0,0,0,0.321312,-0.666895,-0.514745,0.724161,16.865952,165.417253,28.86
07946,14299584,0,0,0,-2.879580,0.104873,9.318945,0,0,0,0,0,0,0.00
07948,14299623,0,0,0,-2.865296,0.114513,9.314026,0,0,0,0,0,0,0.00
07950,14299663,0,0,0,-2.884398,0.095276,9.309405,0,0,0,0,0,0,0.00
07952,14299703,0,0,0,-2.855466,0.066685,9.318824,0,0,0,0,0,0,0.00
07954,14299732,-2.868045,0.083335,9.318547,0,0,0,0.319326,-0.666404,-0.514757,0.724131,16.864668,165.420933,28.86
07957,14299782,0,0,0,-2.859470,0.023577,9.395651,0,0,0,0,0,0,0.00
07959,14299822,0,0,0,-2.854631,0.028386,9.405197,0,0,0,0,0,0,0.00
07961,14299862,0,0,0,-2.854895,0.037961,9.376410,0,0,0,0,0,0,0.00
07965,14299932,-2.866946,0.046611,9.363594,0,0,0,0.322843,-0.669353,-0.517264,0.719476,16.865787,165.419001,28.86
07968,14299981,0,0,0,-2.889230,0.104828,9.309426,0,0,0,0,0,0,0.00
07969,14300000,0,0,0,-2.879499,0.095298,9.323755,0,0,0,0,0,0,0.00
07971,14300040,0,0,0,-2.875063,0.124043,9.294903,0,0,0,0,0,0,0.00
07973,14300080,0,0,0,-2.912934,0.085567,9.328820,0,0,0,0,0,0,0.00
07978,14300159,0,0,0,-2.869396,0.052256,9.366907,0,0,0,0,0,0,0.00
07980,14300199,0,0,0,-2.850288,0.061920,9.366746,0,0,0,0,0,0,0.00
07982,14300239,0,0,0,-2.845209,0.038006,9.390723,0,0,0,0,0,0,0.00
07984,14300278,0,0,0,-2.869251,0.028319,9.371739,0,0,0,0,0,0,0.00
07987,14300338,0,0,0,-2.883833,0.052190,9.357426,0,0,0,0,0,0,0.00
07991,14300397,0,0,0,-2.879361,0.080935,9.333367,0,0,0,0,0,0,0.00
07992,14300417,0,0,0,-2.884332,0.080914,9.309427,0,0,0,0,0,0,0.00
07994,14300457,0,0,0,-2.860385,0.095387,9.318815,0,0,0,0,0,0,0.00
07996,14300497,0,0,0,-2.869961,0.095342,9.318888,0,0,0,0,0,0,0.00
07998,14300536,0,0,0,-2.879485,0.076149,9.314195,0,0,0,0,0,0,0.00
08001,14300576,0,0,0,-2.893453,0.061720,9.357483,0,0,0,0,0,0,0.00
08003,14300616,0,0,0,-2.850171,0.052345,9.376351,0,0,0,0,0,0,0.00
08005,14300655,0,0,0,-2.859741,0.042727,9.371644,0,0,0,0,0,0,0.00
08007,14300695,0,0,0,-2.854932,0.037961,9.371615,0,0,0,0,0,0,0.00
08009,14300735,0,0,0,-2.850377,0.057133,9.352368,0,0,0,0,0,0,0.00
08012,14300775,0,0,0,-2.874557,0.061809,9.323771,0,0,0,0,0,0,0.00
08014,14300814,0,0,0,-2.903490,0.090399,9.314355,0,0,0,0,0,0,0.00
08016,14300854,0,0,0,-2.865107,0.104939,9.333221,0,0,0,0,0,0,0.00
08018,14300894,0,0,0,-2.908059,0.090377,9.343162,0,0,0,0,0,0,0.00
08020,14300933,0,0,0,-2.869807,0.085767,9.333288,0,0,0,0,0,0,0.00
08023,14300973,0,0,0,-2.908037,0.085589,9.343169,0,0,0,0,0,0,0.00
08025,14301013,0,0,0,-2.864975,0.076216,9.333266,0,0,0,0,0,0,0.00
08027,14301052,0,0,0,-2.864622,0.071428,9.376431,0,0,0,0,0,0,0.00
08028,14301072,0,0,0,-2.821789,0.071628,9.342537,0,0,0,0,0,0,0.00
08030,14301112,0,0,0,-2.845465,0.061942,9.371505,0,0,0,0,0,0,0.00
08033,14301152,0,0,0,-2.845707,0.066730,9.342726,0,0,0,0,0,0,0.00
08035,14301191,0,0,0,-2.860063,0.057088,9.338056,0,0,0,0,0,0,0.00
08037,14301231,0,0,0,-2.883877,0.061765,9.357410,0,0,0,0,0,0,0.00
08039,14301271,0,0,0,-2.864902,0.076216,9.342856,0,0,0,0,0,0,0.00
08041,14301310,0,0,0,-2.898513,0.080847,9.333513,0,0,0,0,0,0,0.00
08044,14301350,0,0,0,-2.889120,0.080891,9.309464,0,0,0,0,0,0,0.00
08046,14301390,0,0,0,-2.894070,0.090432,9.295113,0,0,0,0,0,0,0.00
08048,14301429,0,0,0,-2.893622,0.080857,9.347874,0,0,0,0,0,0,0.00
08050,14301469,0,0,0,-2.869522,0.061819,9.357313,0,0,0,0,0,0,0.00
08052,14301509,0,0,0,-2.840699,0.057165,9.366693,0,0,0,0,0,0,0.00
08054,14301532,-2.866124,0.065011,9.357355,0,0,0,0.321327,-0.666378,-0.516242,0.713759,16.872037,165.426188,28.88
08057,14301588,0,0,0,-2.850378,0.047546,9.347599,0,0,0,0,0,0,0.00
08059,14301628,0,0,0,-2.884193,0.080902,9.328620,0,0,0,0,0,0,0.00
08061,14301668,0,0,0,-2.893520,0.066496,9.352692,0,0,0,0,0,0,0.00
08063,14301707,0,0,0,-2.855474,0.066673,9.318835,0,0,0,0,0,0,0.00
08065,14301732,-2.878410,0.068324,9.334301,0,0,0,0.322347,-0.669355,-0.517268,0.716888,16.874697,165.428065,28.88
08068,14301787,0,0,0,-2.908184,0.076003,9.319220,0,0,0,0,0,0,0.00
08070,14301826,0,0,0,-2.855597,0.085822,9.314011,0,0,0,0,0,0,0.00
08072,14301866,0,0,0,-2.879186,0.080924,9.357355,0,0,0,0,0,0,0.00
08076,14301932,-2.858018,0.073002,9.355302,0,0,0,0.321806,-0.668900,-0.513762,0.712734,16.873748,165.428743,28.88
08079,14301985,0,0,0,-2.855086,0.037949,9.352447,0,0,0,0,0,0,0.00
08080,14302005,0,0,0,-2.859771,0.047502,9.371649,0,0,0,0,0,0,0.00
08082,14302045,0,0,0,-2.883907,0.066541,9.357414,0,0,0,0,0,0,0.00
08084,14302084,0,0,0,-2.879413,0.090499,9.333365,0,0,0,0,0,0,0.00
08089,14302164,0,0,0,-2.889107,0.076092,9.309484,0,0,0,0,0,0,0.00
08091,14302204,0,0,0,-2.888988,0.090454,9.333438,0,0,0,0,0,0,0.00
08093,14302243,0,0,0,-2.864983,0.076203,9.333279,0,0,0,0,0,0,0.00
08095,14302283,0,0,0,-2.869625,0.076180,9.352495,0,0,0,0,0,0,0.00
08100,14302362,0,0,0,-2.855224,0.076247,9.357182,0,0,0,0,0,0,0.00
08101,14302382,0,0,0,-2.859968,0.066651,9.357233,0,0,0,0,0,0,0.00
08103,14302422,0,0,0,-2.874486,0.076159,9.342941,0,0,0,0,0,0,0.00
08105,14302462,0,0,0,-2.908111,0.076003,9.328810,0,0,0,0,0,0,0.00
08107,14302501,0,0,0,-2.893638,0.076070,9.343086,0,0,0,0,0,0,0.00
08109,14302532,-2.893372,0.078877,9.332149,0,0,0,0.321321,-0.667388,-0.515252,0.712566,16.878233,165.432005,28.88
08112,14302581,0,0,0,-2.903522,0.071238,9.300011,0,0,0,0,0,0,0.00
08114,14302620,0,0,0,-2.874625,0.066585,9.318980,0,0,0,0,0,0,0.00
08116,14302660,0,0,0,-2.888938,0.071304,9.328671,0,0,0,0,0,0,0.00
08118,14302700,0,0,0,-2.879032,0.047413,9.357408,0,0,0,0,0,0,0.00
08120,14302739,0,0,0,-2.835832,0.047612,9.371467,0,0,0,0,0,0,0.00
08123,14302779,0,0,0,-2.888433,0.033007,9.371889,0,0,0,0,0,0,0.00
08125,14302819,0,0,0,-2.840890,0.066740,9.347497,0,0,0,0,0,0,0.00
08127,14302858,0,0,0,-2.859880,0.047502,9.357263,0,0,0,0,0,0,0.00
08131,14302938,0,0,0,-2.841132,0.071527,9.318718,0,0,0,0,0,0,0.00
08134,14302978,0,0,0,-2.893674,0.076070,9.338291,0,0,0,0,0,0,0.00
08135,14302997,0,0,0,-2.888923,0.076092,9.333460,0,0,0,0,0,0,0.00
08137,14303037,0,0,0,-2.865056,0.076203,9.323688,0,0,0,0,0,0,0.00
08139,14303077,0,0,0,-2.888988,0.090454,9.333438,0,0,0,0,0,0,0.00
08141,14303117,0,0,0,-2.846030,0.095442,9.318717,0,0,0,0,0,0,0.00
08144,14303156,0,0,0,-2.893402,0.080857,9.376645,0,0,0,0,0,0,0.00
08146,14303196,0,0,0,-2.836146,0.076336,9.347445,0,0,0,0,0,0,0.00
08148,14303236,0,0,0,-2.879106,0.071349,9.362165,0,0,0,0,0,0,0.00
08150,14303275,0,0,0,-2.816975,0.023766,9.318612,0,0,0,0,0,0,0.00
08152,14303315,0,0,0,-2.921648,0.023276,9.405725,0,0,0,0,0,0,0.00
08155,14303355,0,0,0,-2.940975,0.013613,9.377114,0,0,0,0,0,0,0.00
08157,14303394,0,0,0,-2.898252,0.037749,9.343184,0,0,0,0,0,0,0.00
08159,14303434,0,0,0,-2.856074,0.109758,9.266021,0,0,0,0,0,0,0.00
08161,14303474,0,0,0,-2.875232,0.167118,9.299643,0,0,0,0,0,0,0.00
08163,14303513,0,0,0,-2.770191,0.191543,9.274830,0,0,0,0,0,0,0.00
08164,14303533,0,0,0,-2.827053,0.157765,9.332861,0,0,0,0,0,0,0.00
08168,14303593,0,0,0,-2.840640,0.076314,9.385843,0,0,0,0,0,0,0.00
08169,14303613,0,0,0,-2.854669,0.018800,9.395633,0,0,0,0,0,0,0.00
08171,14303652,0,0,0,-2.969321,-0.029607,9.401375,0,0,0,0,0,0,0.00
08173,14303692,0,0,0,-2.955105,-0.029540,9.382086,0,0,0,0,0,0,0.00
08175,14303732,0,0,0,-2.855160,-0.009924,9.314160,0,0,0,0,0,0,0.00
08178,14303771,0,0,0,-2.798195,0.057365,9.289642,0,0,0,0,0,0,0.00
08180,14303811,0,0,0,-2.822309,0.095552,9.289764,0,0,0,0,0,0,0.00
08182,14303851,0,0,0,-2.798508,0.181835,9.323014,0,0,0,0,0,0,0.00
08184,14303891,0,0,0,-2.841459,0.191210,9.347302,0,0,0,0,0,0,0.00
08186,14303930,0,0,0,-2.884345,0.186223,9.371614,0,0,0,0,0,0,0.00
08189,14303970,0,0,0,-2.893504,0.119156,9.386176,0,0,0,0,0,0,0.00
08191,14304010,0,0,0,-2.903023,0.066451,9.362355,0,0,0,0,0,0,0.00
08193,14304049,0,0,0,-2.912352,-0.019765,9.343382,0,0,0,0,0,0,0.00
08195,14304089,0,0,0,-2.902754,-0.024508,9.343317,0,0,0,0,0,0,0.00
08197,14304129,0,0,0,-2.897885,-0.010123,9.362439,0,0,0,0,0,0,0.00
08200,14304168,0,0,0,-2.836170,0.033251,9.318742,0,0,0,0,0,0,0.00
08202,14304208,0,0,0,-2.841125,0.085889,9.328286,0,0,0,0,0,0,0.00
08204,14304248,0,0,0,-2.841352,0.119400,9.318644,0,0,0,0,0,0,0.00
08206,14304287,0,0,0,-2.692923,0.014768,9.255344,0,0,0,0,0,0,0.00
08208,14304327,0,0,0,-3.097803,-0.058928,9.488715,0,0,0,0,0,0,0.00
08211,14304367,0,0,0,-3.131890,-0.078234,9.402685,0,0,0,0,0,0,0.00
08212,14304387,0,0,0,-3.046397,-0.015599,9.349187,0,0,0,0,0,0,0.00
08214,14304426,0,0,0,-2.904598,0.114324,9.184858,0,0,0,0,0,0,0.00
08216,14304466,0,0,0,-2.795486,0.239305,9.126285,0,0,0,0,0,0,0.00
08218,14304506,0,0,0,-2.642069,0.259165,9.163453,0,0,0,0,0,0,0.00
08221,14304546,0,0,0,-2.583206,0.216346,9.321326,0,0,0,0,0,0,0.00
08223,14304585,0,0,0,-2.800906,0.124366,9.601262,0,0,0,0,0,0,0.00
08225,14304625,0,0,0,-2.824013,0.014147,9.644773,0,0,0,0,0,0,0.00
08227,14304665,0,0,0,-2.934859,0.027998,9.559274,0,0,0,0,0,0,0.00
08229,14304704,0,0,0,-2.955608,0.080568,9.381913,0,0,0,0,0,0,0.00
08231,14304732,-2.926411,0.046174,9.492784,0,0,0,0.325374,-0.672301,-0.520281,0.696590,16.869585,165.452393,28.88
08234,14304784,0,0,0,-2.900067,0.114347,9.151256,0,0,0,0,0,0,0.00
08236,14304823,0,0,0,-2.937740,0.056721,9.199589,0,0,0,0,0,0,0.00
08238,14304863,0,0,0,-2.984691,-0.034459,9.267227,0,0,0,0,0,0,0.00
08240,14304903,0,0,0,-2.979169,-0.034437,9.363094,0,0,0,0,0,0,0.00
08242,14304932,-2.965331,-0.020885,9.299991,0,0,0,0.323866,-0.671825,-0.518786,0.702942,16.896239,165.436767,28.88
08245,14304982,0,0,0,-2.735784,0.124676,9.351403,0,0,0,0,0,0,0.00
08247,14305022,0,0,0,-2.649609,0.158587,9.369878,0,0,0,0,0,0,0.00
08249,14305062,0,0,0,-2.725482,0.110358,9.437667,0,0,0,0,0,0,0.00
08253,14305132,-2.800594,0.069671,9.445210,0,0,0,0.325350,-0.672324,-0.518278,0.707775,16.873835,165.455702,28.88
08256,14305181,0,0,0,-3.061082,0.046569,9.344403,0,0,0,0,0,0,0.00
08257,14305200,0,0,0,-3.028212,0.075448,9.276972,0,0,0,0,0,0,0.00
08259,14305240,0,0,0,-2.919349,0.166919,9.165704,0,0,0,0,0,0,0.00
08261,14305280,0,0,0,-2.833116,0.172106,9.174632,0,0,0,0,0,0,0.00
08266,14305359,0,0,0,-2.797243,0.009492,9.385621,0,0,0,0,0,0,0.00
08268,14305399,0,0,0,-2.825143,-0.019365,9.476994,0,0,0,0,0,0,0.00
08270,14305439,0,0,0,-2.815575,-0.009745,9.481702,0,0,0,0,0,0,0.00
08272,14305478,0,0,0,-2.825706,0.047657,9.443322,0,0,0,0,0,0,0.00
08275,14305538,0,0,0,-2.870064,0.124054,9.323649,0,0,0,0,0,0,0.00
08279,14305597,0,0,0,-2.965954,0.080524,9.281286,0,0,0,0,0,0,0.00
08280,14305617,0,0,0,-2.980215,0.066096,9.286214,0,0,0,0,0,0,0.00
08282,14305657,0,0,0,-2.984836,0.037350,9.291090,0,0,0,0,0,0,0.00
08284,14305697,0,0,0,-2.937043,0.056721,9.290697,0,0,0,0,0,0,0.00
08286,14305736,0,0,0,-2.836630,0.109847,9.304236,0,0,0,0,0,0,0.00
08289,14305776,0,0,0,-2.755206,0.143736,9.327541,0,0,0,0,0,0,0.00
08291,14305816,0,0,0,-2.735571,0.110313,9.370606,0,0,0,0,0,0,0.00
08293,14305855,0,0,0,-2.763515,0.067096,9.447615,0,0,0,0,0,0,0.00
08295,14305895,0,0,0,-2.839747,0.009292,9.462671,0,0,0,0,0,0,0.00
08297,14305935,0,0,0,-2.954797,-0.000815,9.439584,0,0,0,0,0,0,0.00
08300,14305975,0,0,0,-2.979445,0.042159,9.372565,0,0,0,0,0,0,0.00
08302,14306014,0,0,0,-2.980662,0.099607,9.247800,0,0,0,0,0,0,0.00
08304,14306054,0,0,0,-2.938135,0.118956,9.185106,0,0,0,0,0,0,0.00
08306,14306094,0,0,0,-2.885256,0.128776,9.218256,0,0,0,0,0,0,0.00
08308,14306133,0,0,0,-2.846375,0.090654,9.270773,0,0,0,0,0,0,0.00
08311,14306173,0,0,0,-2.845554,0.047568,9.352358,0,0,0,0,0,0,0.00
08313,14306213,0,0,0,-2.797286,0.043003,9.399954,0,0,0,0,0,0,0.00
08315,14306252,0,0,0,-2.801619,0.047768,9.462320,0,0,0,0,0,0,0.00
08317,14306292,0,0,0,-2.773230,0.081412,9.438075,0,0,0,0,0,0,0.00
08319,14306332,0,0,0,-2.835816,0.076336,9.390602,0,0,0,0,0,0,0.00
08322,14306371,0,0,0,-2.917247,0.052023,9.372078,0,0,0,0,0,0,0.00
08323,14306391,0,0,0,-2.912680,0.052045,9.343270,0,0,0,0,0,0,0.00
08325,14306431,0,0,0,-2.994266,0.037305,9.310344,0,0,0,0,0,0,0.00
08327,14306471,0,0,0,-2.980237,0.046947,9.271858,0,0,0,0,0,0,0.00
08329,14306510,0,0,0,-2.899305,0.099985,9.242387,0,0,0,0,0,0,0.00
08332,14306550,0,0,0,-2.841857,0.133762,9.261079,0,0,0,0,0,0,0.00
08334,14306590,0,0,0,-2.793633,0.114835,9.294312,0,0,0,0,0,0,0.00
08336,14306629,0,0,0,-2.768991,0.081434,9.366111,0,0,0,0,0,0,0.00
08338,14306669,0,0,0,-2.801679,0.028619,9.443171,0,0,0,0,0,0,0.00
08340,14306709,0,0,0,-2.820816,0.033318,9.448104,0,0,0,0,0,0,0.00
08342,14306732,-2.803425,0.043039,9.436884,0,0,0,0.325864,-0.672305,-0.519776,0.690529,16.882637,165.455311,28.88
08345,14306788,0,0,0,-2.922071,0.052000,9.367319,0,0,0,0,0,0,0.00
08347,14306828,0,0,0,-2.922893,0.071149,9.271384,0,0,0,0,0,0,0.00
08349,14306868,0,0,0,-2.927878,0.090277,9.257006,0,0,0,0,0,0,0.00
08351,14306907,0,0,0,-2.918346,0.099896,9.256918,0,0,0,0,0,0,0.00
08353,14306932,-2.921495,0.091586,9.258487,0,0,0,0.324867,-0.672314,-0.519284,0.706330,16.898557,165.454787,28.88
08356,14306987,0,0,0,-2.865020,0.076203,9.328483,0,0,0,0,0,0,0.00
08358,14307026,0,0,0,-2.807220,0.081257,9.375991,0,0,0,0,0,0,0.00
08360,14307066,0,0,0,-2.811920,0.086022,9.390407,0,0,0,0,0,0,0.00
08364,14307132,-2.800882,0.083896,9.390179,0,0,0,0.325878,-0.674798,-0.519804,0.691041,16.887503,165.457692,28.88
08367,14307185,0,0,0,-2.907584,0.032918,9.372035,0,0,0,0,0,0,0.00
08368,14307205,0,0,0,-2.936246,0.018422,9.372275,0,0,0,0,0,0,0.00
08370,14307245,0,0,0,-2.970179,0.037416,9.329342,0,0,0,0,0,0,0.00
08372,14307284,0,0,0,-2.961042,0.061398,9.286076,0,0,0,0,0,0,0.00
08377,14307364,0,0,0,-2.827531,0.109892,9.241826,0,0,0,0,0,0,0.00
08379,14307404,0,0,0,-2.822339,0.109914,9.294538,0,0,0,0,0,0,0.00
08381,14307443,0,0,0,-2.797696,0.076514,9.366336,0,0,0,0,0,0,0.00
08383,14307483,0,0,0,-2.811562,0.047724,9.414442,0,0,0,0,0,0,0.00
08388,14307562,0,0,0,-2.859368,0.023565,9.410048,0,0,0,0,0,0,0.00
08389,14307582,0,0,0,-2.888396,0.033007,9.376684,0,0,0,0,0,0,0.00
08391,14307622,0,0,0,-2.903104,0.052089,9.343198,0,0,0,0,0,0,0.00
08393,14307662,0,0,0,-2.946597,0.075826,9.305125,0,0,0,0,0,0,0.00
08395,14307701,0,0,0,-2.937300,0.104593,9.285827,0,0,0,0,0,0,0.00
08397,14307732,-2.932613,0.080677,9.299205,0,0,0,0.325376,-0.674806,-0.519308,0.701616,16.899861,165.460710,28.88
08400,14307781,0,0,0,-2.865599,0.114502,9.275676,0,0,0,0,0,0,0.00
08402,14307820,0,0,0,-2.836616,0.114635,9.309024,0,0,0,0,0,0,0.00
08404,14307860,0,0,0,-2.821731,0.105126,9.371268,0,0,0,0,0,0,0.00
08406,14307900,0,0,0,-2.816811,0.100363,9.385625,0,0,0,0,0,0,0.00
08408,14307939,0,0,0,-2.797462,0.057365,9.385547,0,0,0,0,0,0,0.00
08411,14307979,0,0,0,-2.864141,0.004394,9.400523,0,0,0,0,0,0,0.00
08413,14308019,0,0,0,-2.916969,-0.000637,9.376955,0,0,0,0,0,0,0.00
08415,14308059,0,0,0,-2.946078,0.018378,9.338781,0,0,0,0,0,0,0.00
08419,14308138,0,0,0,-2.903799,0.099962,9.280785,0,0,0,0,0,0,0.00
08422,14308178,0,0,0,-2.861038,0.124099,9.251649,0,0,0,0,0,0,0.00
08423,14308197,0,0,0,-2.860950,0.128886,9.266027,0,0,0,0,0,0,0.00
08425,14308237,0,0,0,-2.831695,0.109870,9.323380,0,0,0,0,0,0,0.00
08427,14308277,0,0,0,-2.836226,0.109847,9.356983,0,0,0,0,0,0,0.00
08429,14308317,0,0,0,-2.840568,0.076314,9.395433,0,0,0,0,0,0,0.00
08432,14308356,0,0,0,-2.859529,0.042714,9.400427,0,0,0,0,0,0,0.00
08434,14308396,0,0,0,-2.864478,0.037905,9.376495,0,0,0,0,0,0,0.00
08436,14308436,0,0,0,-2.883726,0.018667,9.352694,0,0,0,0,0,0,0.00
08438,14308475,0,0,0,-2.912585,0.023321,9.338520,0,0,0,0,0,0,0.00
08440,14308515,0,0,0,-2.927014,0.013680,9.324257,0,0,0,0,0,0,0.00
08443,14308555,0,0,0,-2.898595,0.056899,9.309587,0,0,0,0,0,0,0.00
08445,14308594,0,0,0,-2.889318,0.090454,9.290280,0,0,0,0,0,0,0.00
08447,14308634,0,0,0,-2.865488,0.114502,9.290061,0,0,0,0,0,0,0.00
08449,14308674,0,0,0,-2.846184,0.128953,9.318665,0,0,0,0,0,0,0.00
08451,14308713,0,0,0,-2.788604,0.134007,9.337402,0,0,0,0,0,0,0.00
08453,14308732,-2.832545,0.123501,9.316051,0,0,0,0.326382,-0.675289,-0.520306,0.690786,16.900239,165.465911,28.88
08456,14308793,0,0,0,-2.878834,0.052200,9.386172,0,0,0,0,0,0,0.00
08458,14308833,0,0,0,-2.888235,0.013857,9.386304,0,0,0,0,0,0,0.00
08460,14308872,0,0,0,-2.898075,0.023388,9.357592,0,0,0,0,0,0,0.00
08462,14308912,0,0,0,-2.893520,0.042559,9.338344,0,0,0,0,0,0,0.00
08464,14308932,-2.899859,0.019556,9.355442,0,0,0,0.326890,-0.675275,-0.521303,0.685665,16.897922,165.461691,28.88
08467,14308991,0,0,0,-2.846082,0.066718,9.294786,0,0,0,0,0,0,0.00
08469,14309031,0,0,0,-2.874830,0.095308,9.309345,0,0,0,0,0,0,0.00
08470,14309051,0,0,0,-2.855656,0.114546,9.323555,0,0,0,0,0,0,0.00
08474,14309130,0,0,0,-2.841036,0.114613,9.357012,0,0,0,0,0,0,0.00
08477,14309170,0,0,0,-2.855246,0.104971,9.371523,0,0,0,0,0,0,0.00
08479,14309210,0,0,0,-2.845664,0.071505,9.352321,0,0,0,0,0,0,0.00
08481,14309249,0,0,0,-2.907810,0.042492,9.348043,0,0,0,0,0,0,0.00
08483,14309289,0,0,0,-2.879019,0.028264,9.347848,0,0,0,0,0,0,0.00
08488,14309368,0,0,0,-2.883967,0.023455,9.323915,0,0,0,0,0,0,0.00
08490,14309408,0,0,0,-2.845709,0.033207,9.323609,0,0,0,0,0,0,0.00
08491,14309428,0,0,0,-2.836337,0.061975,9.313902,0,0,0,0,0,0,0.00
08494,14309488,0,0,0,-2.846007,0.114591,9.333073,0,0,0,0,0,0,0.00
08495,14309507,0,0,0,-2.827032,0.129042,9.318520,0,0,0,0,0,0,0.00
08498,14309547,0,0,0,-2.865108,0.119289,9.342802,0,0,0,0,0,0,0.00
08500,14309587,0,0,0,-2.874522,0.100096,9.352494,0,0,0,0,0,0,0.00
08502,14309626,0,0,0,-2.874558,0.100096,9.347699,0,0,0,0,0,0,0.00
08504,14309666,0,0,0,-2.907920,0.066429,9.348006,0,0,0,0,0,0,0.00
08506,14309706,0,0,0,-2.898361,0.037749,9.328797,0,0,0,0,0,0,0.00
08508,14309732,-2.895826,0.061609,9.343923,0,0,0,0.327374,-0.675285,-0.520297,0.682330,16.900153,165.467052,28.88
08511,14309785,0,0,0,-2.864845,0.037905,9.328543,0,0,0,0,0,0,0.00
08513,14309825,0,0,0,-2.850430,0.042759,9.338017,0,0,0,0,0,0,0.00
08515,14309865,0,0,0,-2.845766,0.061931,9.333156,0,0,0,0,0,0,0.00
08517,14309904,0,0,0,-2.855283,0.081035,9.352379,0,0,0,0,0,0,0.00
08519,14309932,-2.847864,0.069973,9.339920,0,0,0,0.326898,-0.676771,-0.521320,0.679944,16.904788,165.463872,28.88
08522,14309984,0,0,0,-2.860349,0.109736,9.333190,0,0,0,0,0,0,0.00
08523,14310004,0,0,0,-2.855546,0.114546,9.337941,0,0,0,0,0,0,0.00
08525,14310043,0,0,0,-2.870109,0.109692,9.309286,0,0,0,0,0,0,0.00
08529,14310123,0,0,0,-2.912869,0.061620,9.324074,0,0,0,0,0,0,0.00
08532,14310162,0,0,0,-2.893411,0.042559,9.352729,0,0,0,0,0,0,0.00
08534,14310202,0,0,0,-2.859831,0.028353,9.352498,0,0,0,0,0,0,0.00
08536,14310242,0,0,0,-2.812104,0.062086,9.352082,0,0,0,0,0,0,0.00
08538,14310281,0,0,0,-2.835883,0.042825,9.361883,0,0,0,0,0,0,0.00
08543,14310361,0,0,0,-2.874530,0.085733,9.342927,0,0,0,0,0,0,0.00
08545,14310400,0,0,0,-2.884347,0.114413,9.328568,0,0,0,0,0,0,0.00
08547,14310440,0,0,0,-2.879589,0.104860,9.318956,0,0,0,0,0,0,0.00
08549,14310480,0,0,0,-2.922863,0.104660,9.295308,0,0,0,0,0,0,0.00
08550,14310500,0,0,0,-2.908279,0.080791,9.309622,0,0,0,0,0,0,0.00
08552,14310539,0,0,0,-2.898800,0.061687,9.285604,0,0,0,0,0,0,0.00
08555,14310579,0,0,0,-2.888821,0.061730,9.338278,0,0,0,0,0,0,0.00
08557,14310619,0,0,0,-2.879032,0.047413,9.357408,0,0,0,0,0,0,0.00
08559,14310659,0,0,0,-2.831103,0.028486,9.352280,0,0,0,0,0,0,0.00
08561,14310698,0,0,0,-2.831021,0.042848,9.371438,0,0,0,0,0,0,0.00
08563,14310738,0,0,0,-2.850275,0.057121,9.366766,0,0,0,0,0,0,0.00
08566,14310778,0,0,0,-2.869411,0.085755,9.386047,0,0,0,0,0,0,0.00
08568,14310817,0,0,0,-2.869940,0.104904,9.328474,0,0,0,0,0,0,0.00
08570,14310857,0,0,0,-2.898850,0.128709,9.319065,0,0,0,0,0,0,0.00
08572,14310897,0,0,0,-2.913383,0.109492,9.285637,0,0,0,0,0,0,0.00
08574,14310936,0,0,0,-2.899093,0.109559,9.275938,0,0,0,0,0,0,0.00
08577,14310976,0,0,0,-2.898785,0.090410,9.304740,0,0,0,0,0,0,0.00
08579,14311016,0,0,0,-2.869683,0.057032,9.333345,0,0,0,0,0,0,0.00
08581,14311055,0,0,0,-2.831147,0.038060,9.352264,0,0,0,0,0,0,0.00
08583,14311095,0,0,0,-2.826132,0.028508,9.376220,0,0,0,0,0,0,0.00
08585,14311135,0,0,0,-2.840444,0.033229,9.385911,0,0,0,0,0,0,0.00
08588,14311175,0,0,0,-2.835787,0.061975,9.385830,0,0,0,0,0,0,0.00
08590,14311214,0,0,0,-2.850569,0.081058,9.342752,0,0,0,0,0,0,0.00
08591,14311234,0,0,0,-2.855436,0.090610,9.337979,0,0,0,0,0,0,0.00
08594,14311294,0,0,0,-2.903769,0.109536,9.290359,0,0,0,0,0,0,0.00
08595,14311313,0,0,0,-2.913421,0.099906,9.276073,0,0,0,0,0,0,0.00
08598,14311353,0,0,0,-2.927637,0.099839,9.295363,0,0,0,0,0,0,0.00
08600,14311393,0,0,0,-2.879634,0.080913,9.299825,0,0,0,0,0,0,0.00
08602,14311433,0,0,0,-2.893579,0.061696,9.343122,0,0,0,0,0,0,0.00
08604,14311472,0,0,0,-2.821798,0.062029,9.337781,0,0,0,0,0,0,0.00
08606,14311512,0,0,0,-2.826273,0.033283,9.361838,0,0,0,0,0,0,0.00
08609,14311552,0,0,0,-2.854910,0.037937,9.376434,0,0,0,0,0,0,0.00
08611,14311591,0,0,0,-2.850306,0.061896,9.366771,0,0,0,0,0,0,0.00
08613,14311631,0,0,0,-2.864617,0.066617,9.376462,0,0,0,0,0,0,0.00
08615,14311671,0,0,0,-2.874494,0.076147,9.342953,0,0,0,0,0,0,0.00
08617,14311710,0,0,0,-2.889239,0.095229,9.304670,0,0,0,0,0,0,0.00
08619,14311732,-2.876593,0.081415,9.331973,0,0,0,0.327919,-0.677741,-0.523326,0.675796,16.909545,165.473536,28.89
08622,14311790,0,0,0,-2.908507,0.104715,9.295211,0,0,0,0,0,0,0.00
08624,14311830,0,0,0,-2.879590,0.071338,9.299840,0,0,0,0,0,0,0.00
08626,14311869,0,0,0,-2.850460,0.071471,9.352369,0,0,0,0,0,0,0.00
08628,14311909,0,0,0,-2.821769,0.047668,9.333008,0,0,0,0,0,0,0.00
08629,14311929,0,0,0,-2.831132,0.057198,9.366632,0,0,0,0,0,0,0.00
08632,14311968,0,0,0,-2.864714,0.047468,9.352515,0,0,0,0,0,0,0.00
08634,14312008,0,0,0,-2.840532,0.042791,9.381112,0,0,0,0,0,0,0.00
08636,14312048,0,0,0,-2.860014,0.066639,9.352449,0,0,0,0,0,0,0.00
08640,14312127,0,0,0,-2.884546,0.100039,9.295036,0,0,0,0,0,0,0.00
08643,14312167,0,0,0,-2.913296,0.104693,9.295247,0,0,0,0,0,0,0.00
08645,14312207,0,0,0,-2.903683,0.104737,9.299970,0,0,0,0,0,0,0.00
08647,14312246,0,0,0,-2.889239,0.095229,9.304670,0,0,0,0,0,0,0.00
08649,14312286,0,0,0,-2.850701,0.076259,9.323591,0,0,0,0,0,0,0.00
08651,14312326,0,0,0,-2.836081,0.052388,9.342700,0,0,0,0,0,0,0.00
08654,14312365,0,0,0,-2.835935,0.052388,9.361881,0,0,0,0,0,0,0.00
08656,14312405,0,0,0,-2.855013,0.052299,9.371617,0,0,0,0,0,0,0.00
08658,14312445,0,0,0,-2.855152,0.066661,9.362004,0,0,0,0,0,0,0.00
08660,14312484,0,0,0,-2.874370,0.056997,9.347778,0,0,0,0,0,0,0.00
08662,14312524,0,0,0,-2.879253,0.061763,9.338217,0,0,0,0,0,0,0.00
08665,14312564,0,0,0,-2.884539,0.090466,9.290257,0,0,0,0,0,0,0.00
08666,14312584,0,0,0,-2.908360,0.080779,9.300043,0,0,0,0,0,0,0.00
08668,14312623,0,0,0,-2.894093,0.085633,9.290338,0,0,0,0,0,0,0.00
08670,14312663,0,0,0,-2.893917,0.095207,9.319094,0,0,0,0,0,0,0.00
08672,14312703,0,0,0,-2.865057,0.090554,9.333268,0,0,0,0,0,0,0.00
08675,14312742,0,0,0,-2.831286,0.066772,9.352231,0,0,0,0,0,0,0.00
08677,14312782,0,0,0,-2.845591,0.061918,9.357143,0,0,0,0,0,0,0.00
08679,14312822,0,0,0,-2.859786,0.057064,9.376441,0,0,0,0,0,0,0.00
08681,14312862,0,0,0,-2.845444,0.061918,9.376324,0,0,0,0,0,0,0.00
08683,14312901,0,0,0,-2.878908,0.066550,9.386161,0,0,0,0,0,0,0.00
08685,14312932,-2.864365,0.058764,9.379776,0,0,0,0.327899,-0.676257,-0.522307,0.666316,16.909355,165.476907,28.89
08688,14312981,0,0,0,-2.889034,0.066505,9.314305,0,0,0,0,0,0,0.00
08690,14313020,0,0,0,-2.908215,0.080779,9.319224,0,0,0,0,0,0,0.00
08692,14313060,0,0,0,-2.913047,0.090332,9.319246,0,0,0,0,0,0,0.00
08694,14313100,0,0,0,-2.860578,0.109725,9.304430,0,0,0,0,0,0,0.00
08696,14313139,0,0,0,-2.864947,0.090554,9.347653,0,0,0,0,0,0,0.00
08699,14313179,0,0,0,-2.836124,0.061962,9.342685,0,0,0,0,0,0,0.00
08701,14313219,0,0,0,-2.855049,0.052299,9.366822,0,0,0,0,0,0,0.00
08703,14313259,0,0,0,-2.850262,0.052322,9.366786,0,0,0,0,0,0,0.00
08707,14313338,0,0,0,-2.879122,0.056975,9.352610,0,0,0,0,0,0,0.00
08710,14313378,0,0,0,-2.855393,0.071448,9.333225,0,0,0,0,0,0,0.00
08711,14313397,0,0,0,-2.869824,0.061807,9.318964,0,0,0,0,0,0,0.00
08713,14313437,0,0,0,-2.917864,0.080735,9.309706,0,0,0,0,0,0,0.00
08715,14313477,0,0,0,-2.889195,0.085655,9.304686,0,0,0,0,0,0,0.00
08717,14313517,0,0,0,-2.845986,0.076281,9.313963,0,0,0,0,0,0,0.00
08720,14313556,0,0,0,-2.864962,0.109703,9.357214,0,0,0,0,0,0,0.00
08722,14313596,0,0,0,-2.845722,0.066706,9.342750,0,0,0,0,0,0,0.00
08724,14313636,0,0,0,-2.874399,0.071360,9.352551,0,0,0,0,0,0,0.00
08726,14313675,0,0,0,-2.869516,0.066594,9.362113,0,0,0,0,0,0,0.00
08728,14313715,0,0,0,-2.859830,0.066639,9.376426,0,0,0,0,0,0,0.00
08731,14313755,0,0,0,-2.874252,0.047423,9.357384,0,0,0,0,0,0,0.00
08733,14313794,0,0,0,-2.860087,0.042703,9.328511,0,0,0,0,0,0,0.00
08735,14313834,0,0,0,-2.888770,0.056931,9.343092,0,0,0,0,0,0,0.00
08737,14313874,0,0,0,-2.889020,0.071293,9.319094,0,0,0,0,0,0,0.00
08739,14313913,0,0,0,-2.869897,0.085744,9.323722,0,0,0,0,0,0,0.00
08740,14313933,0,0,0,-2.869912,0.080956,9.318933,0,0,0,0,0,0,0.00
08744,14313993,0,0,0,-2.845986,0.100217,9.328312,0,0,0,0,0,0,0.00
08745,14314013,0,0,0,-2.865043,0.095341,9.338056,0,0,0,0,0,0,0.00
08747,14314052,0,0,0,-2.893645,0.076058,9.343099,0,0,0,0,0,0,0.00
08749,14314092,0,0,0,-2.874472,0.071360,9.342960,0,0,0,0,0,0,0.00
08751,14314132,0,0,0,-2.869465,0.047445,9.357347,0,0,0,0,0,0,0.00
08754,14314171,0,0,0,-2.855057,0.037937,9.357254,0,0,0,0,0,0,0.00
08756,14314211,0,0,0,-2.874172,0.037848,9.362194,0,0,0,0,0,0,0.00
08758,14314251,0,0,0,-2.869868,0.047445,9.304600,0,0,0,0,0,0,0.00
08760,14314291,0,0,0,-2.874428,0.061785,9.342976,0,0,0,0,0,0,0.00
08762,14314330,0,0,0,-2.860321,0.085789,9.323649,0,0,0,0,0,0,0.00
08765,14314370,0,0,0,-2.879443,0.095274,9.333369,0,0,0,0,0,0,0.00
08767,14314410,0,0,0,-2.836395,0.105048,9.333027,0,0,0,0,0,0,0.00
08769,14314449,0,0,0,-2.874706,0.090509,9.323750,0,0,0,0,0,0,0.00
08771,14314489,0,0,0,-2.884099,0.090466,9.347798,0,0,0,0,0,0,0.00
08773,14314529,0,0,0,-2.869340,0.052233,9.376521,0,0,0,0,0,0,0.00
08776,14314568,0,0,0,-2.874282,0.061785,9.362157,0,0,0,0,0,0,0.00
08778,14314608,0,0,0,-2.879049,0.033039,9.347852,0,0,0,0,0,0,0.00
08780,14314648,0,0,0,-2.845481,0.037982,9.357181,0,0,0,0,0,0,0.00
08782,14314688,0,0,0,-2.874282,0.037848,9.347808,0,0,0,0,0,0,0.00
08784,14314727,0,0,0,-2.869640,0.061807,9.342939,0,0,0,0,0,0,0.00
08787,14314767,0,0,0,-2.850562,0.085834,9.347552,0,0,0,0,0,0,0.00
08788,14314787,0,0,0,-2.841082,0.090665,9.337881,0,0,0,0,0,0,0.00
08790,14314826,0,0,0,-2.869823,0.085744,9.333312,0,0,0,0,0,0,0.00
08792,14314866,0,0,0,-2.874824,0.100083,9.314144,0,0,0,0,0,0,0.00
08794,14314906,0,0,0,-2.903398,0.090376,9.328764,0,0,0,0,0,0,0.00
08797,14314946,0,0,0,-2.874677,0.100083,9.333325,0,0,0,0,0,0,0.00
08799,14314985,0,0,0,-2.859933,0.057064,9.357261,0,0,0,0,0,0,0.00
08801,14315025,0,0,0,-2.855145,0.057086,9.357224,0,0,0,0,0,0,0.00
08803,14315065,0,0,0,-2.845628,0.037982,9.337999,0,0,0,0,0,0,0.00
08805,14315104,0,0,0,-2.869364,0.033083,9.362165,0,0,0,0,0,0,0.00
08807,14315132,-2.855311,0.037415,9.352643,0,0,0,0.330441,-0.682202,-0.524857,0.655930,16.914280,165.483433,28.89
08810,14315184,0,0,0,-2.874399,0.071360,9.352551,0,0,0,0,0,0,0.00
08812,14315223,0,0,0,-2.845861,0.081068,9.333137,0,0,0,0,0,0,0.00
08814,14315263,0,0,0,-2.865365,0.109703,9.304466,0,0,0,0,0,0,0.00
08816,14315303,0,0,0,-2.894012,0.099995,9.309495,0,0,0,0,0,0,0.00
08818,14315332,-2.875468,0.099622,9.313257,0,0,0,0.330424,-0.681217,-0.523844,0.662616,16.917964,165.487949,28.89
08821,14315382,0,0,0,-2.874553,0.080935,9.338150,0,0,0,0,0,0,0.00
08823,14315422,0,0,0,-2.855182,0.057086,9.352428,0,0,0,0,0,0,0.00
08825,14315462,0,0,0,-2.850430,0.057109,9.347597,0,0,0,0,0,0,0.00
08829,14315532,-2.848169,0.040750,9.356545,0,0,0,0.331455,-0.684181,-0.525872,0.654929,16.913876,165.485448,28.89
08832,14315581,0,0,0,-2.864647,0.057042,9.366887,0,0,0,0,0,0,0.00
08833,14315601,0,0,0,-2.874348,0.076147,9.362134,0,0,0,0,0,0,0.00
08835,14315640,0,0,0,-2.860050,0.066639,9.347654,0,0,0,0,0,0,0.00
08837,14315680,0,0,0,-2.879568,0.090487,9.314196,0,0,0,0,0,0,0.00
08842,14315759,0,0,0,-2.898916,0.109548,9.299926,0,0,0,0,0,0,0.00
08844,14315799,0,0,0,-2.884399,0.100039,9.314217,0,0,0,0,0,0,0.00
08846,14315839,0,0,0,-2.888858,0.076080,9.343061,0,0,0,0,0,0,0.00
08848,14315878,0,0,0,-2.850306,0.061896,9.366771,0,0,0,0,0,0,0.00
08851,14315938,0,0,0,-2.864450,0.013957,9.366954,0,0,0,0,0,0,0.00
08855,14315997,0,0,0,-2.864553,0.028318,9.362137,0,0,0,0,0,0,0.00
08856,14316017,0,0,0,-2.859715,0.033128,9.371683,0,0,0,0,0,0,0.00
08858,14316057,0,0,0,-2.850452,0.061896,9.347589,0,0,0,0,0,0,0.00
08860,14316097,0,0,0,-2.893866,0.099995,9.328676,0,0,0,0,0,0,0.00
08862,14316136,0,0,0,-2.889195,0.109591,9.319034,0,0,0,0,0,0,0.00
08865,14316176,0,0,0,-2.879927,0.128785,9.290160,0,0,0,0,0,0,0.00
08867,14316216,0,0,0,-2.903522,0.085588,9.309590,0,0,0,0,0,0,0.00
08869,14316255,0,0,0,-2.865072,0.085767,9.328481,0,0,0,0,0,0,0.00
08871,14316295,0,0,0,-2.850599,0.061896,9.328409,0,0,0,0,0,0,0.00
08873,14316335,0,0,0,-2.869274,0.037870,9.376543,0,0,0,0,0,0,0.00
08876,14316375,0,0,0,-2.850014,0.014024,9.376435,0,0,0,0,0,0,0.00
08878,14316414,0,0,0,-2.835620,0.023664,9.385901,0,0,0,0,0,0,0.00
08880,14316454,0,0,0,-2.859889,0.047490,9.357275,0,0,0,0,0,0,0.00
08882,14316494,0,0,0,-2.864940,0.080979,9.342873,0,0,0,0,0,0,0.00
08884,14316533,0,0,0,-2.879421,0.090487,9.333377,0,0,0,0,0,0,0.00
08887,14316573,0,0,0,-2.918039,0.119034,9.309647,0,0,0,0,0,0,0.00
08889,14316613,0,0,0,-2.884648,0.114402,9.290219,0,0,0,0,0,0,0.00
08891,14316652,0,0,0,-2.893983,0.109570,9.319071,0,0,0,0,0,0,0.00
08893,14316692,0,0,0,-2.855614,0.095385,9.318803,0,0,0,0,0,0,0.00
08895,14316732,0,0,0,-2.864919,0.052256,9.328533,0,0,0,0,0,0,0.00
08898,14316772,0,0,0,-2.850006,0.028385,9.386003,0,0,0,0,0,0,0.00
08899,14316791,0,0,0,-2.840577,0.028429,9.366750,0,0,0,0,0,0,0.00
08901,14316831,0,0,0,-2.835758,0.038026,9.376288,0,0,0,0,0,0,0.00
08903,14316871,0,0,0,-2.864288,0.042681,9.405271,0,0,0,0,0,0,0.00
08905,14316910,0,0,0,-2.860065,0.061852,9.342867,0,0,0,0,0,0,0.00
08908,14316950,0,0,0,-2.889130,0.095229,9.319057,0,0,0,0,0,0,0.00
08910,14316990,0,0,0,-2.913113,0.104693,9.319223,0,0,0,0,0,0,0.00
08912,14317030,0,0,0,-2.908647,0.119078,9.285599,0,0,0,0,0,0,0.00
08914,14317069,0,0,0,-2.894114,0.114357,9.304678,0,0,0,0,0,0,0.00
08916,14317109,0,0,0,-2.874699,0.104871,9.333318,0,0,0,0,0,0,0.00
08919,14317149,0,0,0,-2.855262,0.066661,9.347618,0,0,0,0,0,0,0.00
08921,14317188,0,0,0,-2.845407,0.037982,9.366771,0,0,0,0,0,0,0.00
08923,14317228,0,0,0,-2.845218,0.028407,9.385966,0,0,0,0,0,0,0.00
08925,14317268,0,0,0,-2.840482,0.023642,9.376348,0,0,0,0,0,0,0.00
08927,14317307,0,0,0,-2.859707,0.023553,9.366903,0,0,0,0,0,0,0.00
08929,14317332,-2.850267,0.023745,9.375583,0,0,0,0.331468,-0.684169,-0.526874,0.647212,16.918806,165.489707,28.89
08932,14317387,0,0,0,-2.903346,0.095162,9.338346,0,0,0,0,0,0,0.00
08934,14317426,0,0,0,-2.899063,0.109548,9.280745,0,0,0,0,0,0,0.00
08936,14317466,0,0,0,-2.898953,0.109548,9.295131,0,0,0,0,0,0,0.00
08938,14317506,0,0,0,-2.874927,0.090509,9.294979,0,0,0,0,0,0,0.00
08939,14317526,0,0,0,-2.869926,0.100105,9.328494,0,0,0,0,0,0,0.00
08943,14317585,0,0,0,-2.850401,0.066684,9.357173,0,0,0,0,0,0,0.00
08944,14317605,0,0,0,-2.859801,0.052278,9.371654,0,0,0,0,0,0,0.00
08946,14317645,0,0,0,-2.826140,0.028496,9.376231,0,0,0,0,0,0,0.00
08950,14317724,0,0,0,-2.859677,0.033128,9.376478,0,0,0,0,0,0,0.00
08953,14317764,0,0,0,-2.859875,0.052278,9.362063,0,0,0,0,0,0,0.00
08955,14317804,0,0,0,-2.908119,0.075992,9.328822,0,0,0,0,0,0,0.00
08957,14317843,0,0,0,-2.913288,0.119056,9.304815,0,0,0,0,0,0,0.00
08959,14317883,0,0,0,-2.903859,0.119100,9.285563,0,0,0,0,0,0,0.00
08961,14317923,0,0,0,-2.903727,0.114312,9.299955,0,0,0,0,0,0,0.00
08964,14317962,0,0,0,-2.860343,0.090576,9.323642,0,0,0,0,0,0,0.00
08965,14317982,0,0,0,-2.860343,0.090576,9.323642,0,0,0,0,0,0,0.00
08967,14318022,0,0,0,-2.855188,0.066661,9.357209,0,0,0,0,0,0,0.00
08969,14318062,0,0,0,-2.850071,0.042747,9.385981,0,0,0,0,0,0,0.00
08971,14318101,0,0,0,-2.840350,0.018854,9.390740,0,0,0,0,0,0,0.00
08974,14318141,0,0,0,-2.845387,0.033195,9.366778,0,0,0,0,0,0,0.00
08976,14318181,0,0,0,-2.855188,0.042725,9.342860,0,0,0,0,0,0,0.00
08978,14318220,0,0,0,-2.893697,0.071271,9.333516,0,0,0,0,0,0,0.00
08980,14318260,0,0,0,-2.879634,0.104849,9.314173,0,0,0,0,0,0,0.00
08982,14318300,0,0,0,-2.894027,0.095207,9.304708,0,0,0,0,0,0,0.00
08984,14318339,0,0,0,-2.922996,0.123798,9.290495,0,0,0,0,0,0,0.00
08987,14318379,0,0,0,-2.865460,0.114491,9.294869,0,0,0,0,0,0,0.00
08989,14318419,0,0,0,-2.869956,0.090531,9.318919,0,0,0,0,0,0,0.00
08991,14318459,0,0,0,-2.840664,0.047579,9.366719,0,0,0,0,0,0,0.00
08993,14318498,0,0,0,-2.826178,0.028496,9.371436,0,0,0,0,0,0,0.00
08995,14318538,0,0,0,-2.840424,0.018854,9.381149,0,0,0,0,0,0,0.00
08998,14318578,0,0,0,-2.854947,0.037937,9.371639,0,0,0,0,0,0,0.00
09000,14318617,0,0,0,-2.859853,0.047490,9.362070,0,0,0,0,0,0,0.00
09002,14318657,0,0,0,-2.893778,0.080846,9.328706,0,0,0,0,0,0,0.00
09004,14318697,0,0,0,-2.889341,0.109591,9.299852,0,0,0,0,0,0,0.00
09006,14318736,0,0,0,-2.918230,0.104671,9.276102,0,0,0,0,0,0,0.00
09009,14318776,0,0,0,-2.879978,0.123999,9.280577,0,0,0,0,0,0,0.00
09011,14318816,0,0,0,-2.889415,0.109591,9.290262,0,0,0,0,0,0,0.00
09012,14318836,0,0,0,-2.879590,0.095274,9.314188,0,0,0,0,0,0,0.00
09015,14318895,0,0,0,-2.845415,0.047557,9.371551,0,0,0,0,0,0,0.00
09016,14318915,0,0,0,-2.859838,0.052278,9.366858,0,0,0,0,0,0,0.00
09019,14318955,0,0,0,-2.835693,0.023664,9.376311,0,0,0,0,0,0,0.00
09021,14318994,0,0,0,-2.845277,0.009258,9.366816,0,0,0,0,0,0,0.00
09023,14319034,0,0,0,-2.855021,0.037937,9.362049,0,0,0,0,0,0,0.00
09025,14319074,0,0,0,-2.893293,0.071271,9.386263,0,0,0,0,0,0,0.00
09027,14319113,0,0,0,-2.894019,0.085633,9.299928,0,0,0,0,0,0,0.00
09030,14319153,0,0,0,-2.908360,0.080779,9.300043,0,0,0,0,0,0,0.00
09032,14319193,0,0,0,-2.894166,0.109570,9.295094,0,0,0,0,0,0,0.00
09034,14319233,0,0,0,-2.875043,0.124021,9.299722,0,0,0,0,0,0,0.00
09036,14319272,0,0,0,-2.865263,0.095341,9.309284,0,0,0,0,0,0,0.00
09038,14319312,0,0,0,-2.864947,0.066617,9.333305,0,0,0,0,0,0,0.00
09040,14319332,-2.866593,0.087643,9.320216,0,0,0,0.332479,-0.686653,-0.527394,0.646389,16.926362,165.495713,28.89
09043,14319391,0,0,0,-2.845277,0.033195,9.381164,0,0,0,0,0,0,0.00
09045,14319431,0,0,0,-2.850286,0.033173,9.352429,0,0,0,0,0,0,0.00
09046,14319451,0,0,0,-2.854940,0.028362,9.366859,0,0,0,0,0,0,0.00
09048,14319491,0,0,0,-2.874377,0.066572,9.352558,0,0,0,0,0,0,0.00
09050,14319530,0,0,0,-2.884319,0.090466,9.319028,0,0,0,0,0,0,0.00
09053,14319570,0,0,0,-2.903756,0.104737,9.290380,0,0,0,0,0,0,0.00
09055,14319610,0,0,0,-2.908632,0.099928,9.276037,0,0,0,0,0,0,0.00
09057,14319649,0,0,0,-2.875044,0.100083,9.285374,0,0,0,0,0,0,0.00
09061,14319729,0,0,0,-2.845694,0.076281,9.352324,0,0,0,0,0,0,0.00
09064,14319768,0,0,0,-2.859861,0.033128,9.352502,0,0,0,0,0,0,0.00
09066,14319808,0,0,0,-2.840620,0.038004,9.366735,0,0,0,0,0,0,0.00
09068,14319848,0,0,0,-2.835840,0.023664,9.357131,0,0,0,0,0,0,0.00
09070,14319888,0,0,0,-2.893301,0.056909,9.376696,0,0,0,0,0,0,0.00
09072,14319927,0,0,0,-2.864860,0.047468,9.333335,0,0,0,0,0,0,0.00
09075,14319967,0,0,0,-2.884188,0.061741,9.319073,0,0,0,0,0,0,0.00
09077,14320007,0,0,0,-2.894107,0.104782,9.299897,0,0,0,0,0,0,0.00
09078,14320026,0,0,0,-2.898800,0.099973,9.309531,0,0,0,0,0,0,0.00
09081,14320086,0,0,0,-2.879656,0.109636,9.314165,0,0,0,0,0,0,0.00
09082,14320106,0,0,0,-2.879407,0.095274,9.338164,0,0,0,0,0,0,0.00
09085,14320146,0,0,0,-2.860248,0.085789,9.333240,0,0,0,0,0,0,0.00
09087,14320185,0,0,0,-2.855240,0.061873,9.347626,0,0,0,0,0,0,0.00
09089,14320225,0,0,0,-2.864670,0.037893,9.352530,0,0,0,0,0,0,0.00
09091,14320265,0,0,0,-2.840526,0.033216,9.376332,0,0,0,0,0,0,0.00
09093,14320304,0,0,0,-2.879114,0.047401,9.347829,0,0,0,0,0,0,0.00
09095,14320332,-2.859024,0.034720,9.365289,0,0,0,0.332975,-0.685648,-0.527879,0.639209,16.924639,165.494798,28.89
09098,14320384,0,0,0,-2.884129,0.056953,9.323875,0,0,0,0,0,0,0.00
09100,14320423,0,0,0,-2.908273,0.085567,9.314422,0,0,0,0,0,0,0.00
09102,14320463,0,0,0,-2.898894,0.104760,9.299933,0,0,0,0,0,0,0.00
09104,14320503,0,0,0,-2.870028,0.114468,9.323677,0,0,0,0,0,0,0.00
09106,14320532,-2.891064,0.111362,9.304574,0,0,0,0.331955,-0.683675,-0.526363,0.648288,16.929824,165.499032,28.89
09109,14320582,0,0,0,-2.869728,0.080956,9.342909,0,0,0,0,0,0,0.00
09111,14320622,0,0,0,-2.850284,0.057109,9.366778,0,0,0,0,0,0,0.00
09113,14320662,0,0,0,-2.831097,0.033261,9.357080,0,0,0,0,0,0,0.00
09117,14320732,-2.851994,0.036142,9.367922,0,0,0,0.331953,-0.685682,-0.525384,0.639029,16.923595,165.496809,28.89
09119,14320761,0,0,0,-2.869465,0.047445,9.357347,0,0,0,0,0,0,0.00
09121,14320801,0,0,0,-2.879275,0.066550,9.338209,0,0,0,0,0,0,0.00
09123,14320840,0,0,0,-2.889276,0.095229,9.299875,0,0,0,0,0,0,0.00
09125,14320880,0,0,0,-2.889393,0.104804,9.290270,0,0,0,0,0,0,0.00
09130,14320959,0,0,0,-2.860497,0.100150,9.309240,0,0,0,0,0,0,0.00
09132,14320999,0,0,0,-2.869934,0.085744,9.318927,0,0,0,0,0,0,0.00
09134,14321039,0,0,0,-2.855371,0.090598,9.347581,0,0,0,0,0,0,0.00
09136,14321078,0,0,0,-2.831038,0.028474,9.361882,0,0,0,0,0,0,0.00
09141,14321158,0,0,0,-2.845598,0.047557,9.347574,0,0,0,0,0,0,0.00
09143,14321197,0,0,0,-2.835196,-0.052934,9.395612,0,0,0,0,0,0,0.00
09145,14321237,0,0,0,-3.101799,0.051167,9.033010,0,0,0,0,0,0,0.00
09146,14321257,0,0,0,-2.934401,0.291310,9.151244,0,0,0,0,0,0,0.00
09148,14321297,0,0,0,-2.891418,0.114378,9.031314,0,0,0,0,0,0,0.00
09150,14321336,0,0,0,-3.035768,-0.087378,9.445143,0,0,0,0,0,0,0.00
09153,14321376,0,0,0,-2.862321,0.186322,9.122093,0,0,0,0,0,0,0.00
09155,14321416,0,0,0,-2.953132,0.142815,9.118055,0,0,0,0,0,0,0.00
09157,14321455,0,0,0,-2.748463,0.387900,9.729933,0,0,0,0,0,0,0.00
09159,14321495,0,0,0,-3.379395,-0.304363,8.210861,0,0,0,0,0,0,0.00
09161,14321535,0,0,0,-3.273914,-0.624625,8.037935,0,0,0,0,0,0,0.00
09164,14321575,0,0,0,-3.280350,0.208346,8.319588,0,0,0,0,0,0,0.00
09166,14321614,0,0,0,-2.911936,0.645682,9.169689,0,0,0,0,0,0,0.00
09168,14321654,0,0,0,-2.766470,0.158043,9.116615,0,0,0,0,0,0,0.00
09170,14321694,0,0,0,-2.826442,-0.354489,9.108299,0,0,0,0,0,0,0.00
09172,14321733,0,0,0,-2.740707,-0.397197,9.649606,0,0,0,0,0,0,0.00
09175,14321773,0,0,0,-2.382807,-0.596620,9.997281,0,0,0,0,0,0,0.00
09177,14321813,0,0,0,-2.498103,-0.520556,9.993237,0,0,0,0,0,0,0.00
09179,14321852,0,0,0,-2.679925,-0.507038,10.018573,0,0,0,0,0,0,0.00
09181,14321892,0,0,0,-2.653382,-0.478182,9.749779,0,0,0,0,0,0,0.00
09183,14321932,0,0,0,-2.666478,-0.478228,9.289512,0,0,0,0,0,0,0.00
09186,14321972,0,0,0,-2.995092,-0.216434,9.051811,0,0,0,0,0,0,0.00
09188,14322011,0,0,0,-2.967283,0.056576,9.094323,0,0,0,0,0,0,0.00
09190,14322051,0,0,0,-2.812591,0.042946,8.651988,0,0,0,0,0,0,0.00
09192,14322091,0,0,0,-2.948498,0.104538,9.074923,0,0,0,0,0,0,0.00
09194,14322130,0,0,0,-2.859691,0.420901,9.606042,0,0,0,0,0,0,0.00
09197,14322170,0,0,0,-2.515729,0.566119,9.588815,0,0,0,0,0,0,0.00
09198,14322190,0,0,0,-2.359088,0.495042,9.367148,0,0,0,0,0,0,0.00
09200,14322230,0,0,0,-2.094522,0.141981,9.941163,0,0,0,0,0,0,0.00
09202,14322269,0,0,0,-2.500533,0.403397,10.226758,0,0,0,0,0,0,0.00
09204,14322309,0,0,0,-2.413539,0.619226,10.460732,0,0,0,0,0,0,0.00
09207,14322349,0,0,0,-2.370668,0.303484,9.616906,0,0,0,0,0,0,0.00
09209,14322388,0,0,0,-2.502698,0.336394,9.277375,0,0,0,0,0,0,0.00
09211,14322428,0,0,0,-2.728895,0.028961,8.943900,0,0,0,0,0,0,0.00
09213,14322468,0,0,0,-3.060143,0.180623,8.922192,0,0,0,0,0,0,0.00
09215,14322507,0,0,0,-2.974580,0.348578,8.940456,0,0,0,0,0,0,0.00
09217,14322532,-2.931071,0.230304,8.937209,0,0,0,0.300704,-0.675284,-0.529044,0.899907,15.074664,166.899629,28.89
09220,14322587,0,0,0,-2.533645,0.139980,8.870309,0,0,0,0,0,0,0.00
09222,14322626,0,0,0,-2.527977,0.087322,9.580082,0,0,0,0,0,0,0.00
09224,14322666,0,0,0,-2.370678,-0.203993,9.939014,0,0,0,0,0,0,0.00
09226,14322706,0,0,0,-2.061849,-0.575983,10.028382,0,0,0,0,0,0,0.00
09228,14322732,-2.273304,-0.304638,9.947117,0,0,0,0.294773,-0.679801,-0.528646,0.785220,14.690074,167.082956,28.89
09231,14322785,0,0,0,-2.390652,-0.979671,10.621365,0,0,0,0,0,0,0.00
09233,14322825,0,0,0,-2.470776,-0.539594,10.424655,0,0,0,0,0,0,0.00
09235,14322865,0,0,0,-2.359190,-0.261397,10.154817,0,0,0,0,0,0,0.00
09239,14322932,-2.318382,-0.221950,10.142748,0,0,0,0.286830,-0.677835,-0.528692,0.949970,14.732514,167.629894,28.89
09242,14322984,0,0,0,-2.348393,0.293999,10.019573,0,0,0,0,0,0,0.00
09243,14323004,0,0,0,-2.344511,0.475939,10.009663,0,0,0,0,0,0,0.00
09245,14323043,0,0,0,-2.348549,-0.112925,9.756474,0,0,0,0,0,0,0.00
09247,14323083,0,0,0,-2.329618,0.533475,9.486750,0,0,0,0,0,0,0.00
09252,14323162,0,0,0,-2.378832,0.820470,10.110077,0,0,0,0,0,0,0.00
09254,14323202,0,0,0,-2.155246,0.864600,9.945264,0,0,0,0,0,0,0.00
09256,14323242,0,0,0,-2.155718,1.056093,9.997712,0,0,0,0,0,0,0.00
09258,14323281,0,0,0,-2.265643,0.940686,9.955572,0,0,0,0,0,0,0.00
09263,14323361,0,0,0,-2.297109,0.844785,10.166965,0,0,0,0,0,0,0.00
09264,14323381,0,0,0,-2.383131,0.777363,10.148541,0,0,0,0,0,0,0.00
09266,14323420,0,0,0,-2.288077,0.763445,10.047138,0,0,0,0,0,0,0.00
09268,14323460,0,0,0,-2.179078,0.744805,9.888091,0,0,0,0,0,0,0.00
09270,14323500,0,0,0,-2.378710,0.681638,10.043160,0,0,0,0,0,0,0.00
09272,14323539,0,0,0,-2.183258,0.739997,9.964858,0,0,0,0,0,0,0.00
09275,14323579,0,0,0,-2.069086,0.845851,9.930255,0,0,0,0,0,0,0.00
09277,14323619,0,0,0,-2.247247,1.017371,9.902558,0,0,0,0,0,0,0.00
09279,14323659,0,0,0,-2.253917,1.156181,9.739341,0,0,0,0,0,0,0.00
09281,14323698,0,0,0,-2.274188,1.256626,9.653016,0,0,0,0,0,0,0.00
09283,14323738,0,0,0,-2.279465,1.323627,9.628971,0,0,0,0,0,0,0.00
09286,14323778,0,0,0,-2.224970,1.481874,9.335780,0,0,0,0,0,0,0.00
09288,14323817,0,0,0,-2.259238,1.558315,9.283168,0,0,0,0,0,0,0.00
09290,14323857,0,0,0,-2.190065,1.663968,8.999542,0,0,0,0,0,0,0.00
09292,14323897,0,0,0,-2.292319,1.716163,8.808414,0,0,0,0,0,0,0.00
09294,14323936,0,0,0,-2.326069,1.735156,8.789458,0,0,0,0,0,0,0.00
09297,14323976,0,0,0,-2.446805,1.825561,8.708706,0,0,0,0,0,0,0.00
09299,14324016,0,0,0,-2.318030,1.807011,8.631031,0,0,0,0,0,0,0.00
09300,14324036,0,0,0,-2.357272,1.859493,8.540131,0,0,0,0,0,0,0.00
09303,14324095,0,0,0,-2.472343,1.806299,8.488338,0,0,0,0,0,0,0.00
09304,14324115,0,0,0,-2.525437,1.739033,8.392939,0,0,0,0,0,0,0.00
09307,14324155,0,0,0,-2.631927,1.791204,8.273776,0,0,0,0,0,0,0.00
09309,14324194,0,0,0,-2.669560,1.652194,8.279078,0,0,0,0,0,0,0.00
09311,14324234,0,0,0,-2.817922,1.493525,8.194139,0,0,0,0,0,0,0.00
09313,14324274,0,0,0,-2.826165,1.354649,8.285538,0,0,0,0,0,0,0.00
09315,14324314,0,0,0,-2.959298,1.191257,8.310786,0,0,0,0,0,0,0.00
09318,14324353,0,0,0,-3.092241,0.994356,8.340881,0,0,0,0,0,0,0.00
09320,14324393,0,0,0,-3.324661,0.739540,8.477325,0,0,0,0,0,0,0.00
09322,14324433,0,0,0,-3.622915,0.431753,8.739036,0,0,0,0,0,0,0.00
09324,14324472,0,0,0,-3.701469,0.187222,8.965409,0,0,0,0,0,0,0.00
09326,14324512,0,0,0,-3.935267,-0.086743,8.910074,0,0,0,0,0,0,0.00
09328,14324532,-3.778694,0.163582,8.844407,0,0,0,0.465956,-0.661951,-0.464347,0.512198,19.194091,154.314947,28.89
09331,14324591,0,0,0,-3.814903,-0.392576,8.813741,0,0,0,0,0,0,0.00
09333,14324631,0,0,0,-3.537588,-0.467885,8.715848,0,0,0,0,0,0,0.00
09335,14324671,0,0,0,-3.389254,-0.567730,8.642950,0,0,0,0,0,0,0.00
09337,14324710,0,0,0,-3.461237,-0.716472,8.533438,0,0,0,0,0,0,0.00
09338,14324730,0,0,0,-3.324031,-0.754148,8.920892,0,0,0,0,0,0,0.00
09341,14324770,0,0,0,-3.286464,-0.873652,8.752955,0,0,0,0,0,0,0.00
09343,14324810,0,0,0,-3.429121,-1.032301,8.787859,0,0,0,0,0,0,0.00
09345,14324849,0,0,0,-3.480249,-1.104355,8.946614,0,0,0,0,0,0,0.00
09349,14324929,0,0,0,-3.252831,-1.232568,9.180072,0,0,0,0,0,0,0.00
09352,14324968,0,0,0,-3.351002,-1.266523,8.845188,0,0,0,0,0,0,0.00
09354,14325008,0,0,0,-3.359918,-1.314442,8.902878,0,0,0,0,0,0,0.00
09356,14325048,0,0,0,-3.472599,-1.353272,9.172340,0,0,0,0,0,0,0.00
09358,14325088,0,0,0,-3.433190,-1.434479,9.268083,0,0,0,0,0,0,0.00
09360,14325127,0,0,0,-3.485126,-1.482596,9.335690,0,0,0,0,0,0,0.00
09363,14325167,0,0,0,-3.365142,-1.520340,9.349226,0,0,0,0,0,0,0.00
09365,14325207,0,0,0,-3.350068,-1.587296,9.401970,0,0,0,0,0,0,0.00
09367,14325246,0,0,0,-3.167052,-1.677410,9.487043,0,0,0,0,0,0,0.00
09369,14325286,0,0,0,-2.985275,-1.705291,9.447346,0,0,0,0,0,0,0.00
09371,14325326,0,0,0,-2.888292,-1.700058,9.609649,0,0,0,0,0,0,0.00
09374,14325365,0,0,0,-2.718613,-1.718431,9.872142,0,0,0,0,0,0,0.00
09375,14325385,0,0,0,-2.666277,-1.766059,9.799889,0,0,0,0,0,0,0.00
09377,14325425,0,0,0,-2.650322,-1.785141,9.996413,0,0,0,0,0,0,0.00
09379,14325465,0,0,0,-2.645690,-1.847354,9.938931,0,0,0,0,0,0,0.00
09381,14325504,0,0,0,-2.462567,-1.736402,10.157958,0,0,0,0,0,0,0.00
09384,14325544,0,0,0,-2.318796,-1.596904,10.257349,0,0,0,0,0,0,0.00
09386,14325584,0,0,0,-2.313210,-1.386238,10.487154,0,0,0,0,0,0,0.00
09388,14325623,0,0,0,-2.260150,-1.175351,10.663848,0,0,0,0,0,0,0.00
09390,14325663,0,0,0,-2.408506,-0.994101,10.156361,0,0,0,0,0,0,0.00
09392,14325703,0,0,0,-2.555843,-0.530396,9.950532,0,0,0,0,0,0,0.00
09394,14325732,-2.448998,-0.782848,10.129771,0,0,0,0.587356,-0.605392,-0.441615,0.580989,16.000604,142.969183,28.89
09397,14325782,0,0,0,-2.905005,0.329741,9.261256,0,0,0,0,0,0,0.00
09399,14325822,0,0,0,-2.883767,0.559644,9.044931,0,0,0,0,0,0,0.00
09401,14325862,0,0,0,-2.765959,0.708605,8.885548,0,0,0,0,0,0,0.00
09403,14325901,0,0,0,-2.882232,0.765520,8.742475,0,0,0,0,0,0,0.00
09405,14325932,-2.830611,0.704438,8.841572,0,0,0,0.584823,-0.604452,-0.437619,0.757643,16.180089,143.268464,28.89
09408,14325981,0,0,0,-2.772901,0.445259,9.073047,0,0,0,0,0,0,0.00
09410,14326020,0,0,0,-2.764524,0.205915,9.399457,0,0,0,0,0,0,0.00
09412,14326060,0,0,0,-2.675003,-0.042624,9.686905,0,0,0,0,0,0,0.00
09416,14326139,0,0,0,-2.553095,-0.204838,9.878058,0,0,0,0,0,0,0.00
09419,14326179,0,0,0,-2.553357,-0.099517,9.906666,0,0,0,0,0,0,0.00
09420,14326199,0,0,0,-2.519914,-0.051488,9.925517,0,0,0,0,0,0,0.00
09422,14326239,0,0,0,-2.525624,0.029874,9.853498,0,0,0,0,0,0,0.00
09424,14326278,0,0,0,-2.647329,0.043680,9.600238,0,0,0,0,0,0,0.00
09429,14326358,0,0,0,-2.707240,0.139159,9.336788,0,0,0,0,0,0,0.00
09431,14326397,0,0,0,-2.755762,0.239470,9.313018,0,0,0,0,0,0,0.00
09433,14326437,0,0,0,-2.756099,0.272982,9.288991,0,0,0,0,0,0,0.00
09435,14326477,0,0,0,-2.780596,0.258510,9.207676,0,0,0,0,0,0,0.00
09437,14326517,0,0,0,-2.766797,0.277725,9.145200,0,0,0,0,0,0,0.00
09438,14326536,0,0,0,-2.847992,0.258199,9.160233,0,0,0,0,0,0,0.00
09442,14326596,0,0,0,-2.819032,0.191310,9.150530,0,0,0,0,0,0,0.00
09443,14326616,0,0,0,-2.823814,0.133839,9.117089,0,0,0,0,0,0,0.00
09445,14326656,0,0,0,-2.813330,0.095585,9.212981,0,0,0,0,0,0,0.00
09447,14326695,0,0,0,-2.851428,0.042747,9.208558,0,0,0,0,0,0,0.00
09449,14326735,0,0,0,-2.874994,0.009125,9.237563,0,0,0,0,0,0,0.00
09452,14326775,0,0,0,-2.716790,-0.042804,9.231651,0,0,0,0,0,0,0.00
09454,14326814,0,0,0,-2.788557,-0.062285,9.227431,0,0,0,0,0,0,0.00
09456,14326854,0,0,0,-2.788161,-0.076648,9.270610,0,0,0,0,0,0,0.00
09458,14326894,0,0,0,-2.759045,-0.057364,9.332700,0,0,0,0,0,0,0.00
09460,14326933,0,0,0,-2.835636,-0.076870,9.323721,0,0,0,0,0,0,0.00
09463,14326973,0,0,0,-2.695731,0.005160,9.509553,0,0,0,0,0,0,0.00
09465,14327013,0,0,0,-2.691324,0.024330,9.471126,0,0,0,0,0,0,0.00
09467,14327052,0,0,0,-2.720192,-0.057187,9.404337,0,0,0,0,0,0,0.00
09469,14327092,0,0,0,-2.705397,-0.095419,9.437855,0,0,0,0,0,0,0.00
09471,14327132,0,0,0,-2.748127,-0.062107,9.505262,0,0,0,0,0,0,0.00
09474,14327172,0,0,0,-2.646354,0.062829,9.739269,0,0,0,0,0,0,0.00
09476,14327211,0,0,0,-2.643003,0.120300,9.585697,0,0,0,0,0,0,0.00
09478,14327251,0,0,0,-2.745488,-0.009425,9.255794,0,0,0,0,0,0,0.00
09480,14327291,0,0,0,-2.819513,0.023752,8.987755,0,0,0,0,0,0,0.00
09481,14327310,0,0,0,-2.906816,0.028139,8.844545,0,0,0,0,0,0,0.00
09484,14327350,0,0,0,-2.886922,0.435152,9.184223,0,0,0,0,0,0,0.00
09486,14327390,0,0,0,-3.024264,-0.034629,8.476285,0,0,0,0,0,0,0.00
09488,14327430,0,0,0,-3.056726,-0.513516,8.328636,0,0,0,0,0,0,0.00
09490,14327469,0,0,0,-3.157605,-0.389534,8.986184,0,0,0,0,0,0,0.00
09492,14327509,0,0,0,-2.686279,0.000417,9.490307,0,0,0,0,0,0,0.00
09495,14327549,0,0,0,-2.489485,0.006115,9.555942,0,0,0,0,0,0,0.00
09497,14327588,0,0,0,-2.751594,-0.287133,9.544012,0,0,0,0,0,0,0.00
09499,14327628,0,0,0,-2.733236,-0.449815,9.342723,0,0,0,0,0,0,0.00
09501,14327668,0,0,0,-2.622880,-0.420579,9.389794,0,0,0,0,0,0,0.00
09503,14327707,0,0,0,-2.708541,-0.430553,9.452800,0,0,0,0,0,0,0.00
09505,14327732,-2.662523,-0.424171,9.405288,0,0,0,0.590270,-0.600928,-0.438534,0.487851,15.833193,142.708314,28.89
09508,14327787,0,0,0,-2.490388,-0.386467,9.829919,0,0,0,0,0,0,0.00
09510,14327826,0,0,0,-2.364774,-0.424188,9.953709,0,0,0,0,0,0,0.00
09512,14327866,0,0,0,-2.296389,-0.567496,10.044534,0,0,0,0,0,0,0.00
09514,14327906,0,0,0,-2.377020,-0.534363,10.164978,0,0,0,0,0,0,0.00
09516,14327932,-2.332964,-0.539063,10.091357,0,0,0,0.585881,-0.603379,-0.443609,0.421394,15.776098,143.239628,28.89
09519,14327985,0,0,0,-2.619831,-0.501963,9.739970,0,0,0,0,0,0,0.00
09521,14328025,0,0,0,-2.674571,-0.425610,9.514875,0,0,0,0,0,0,0.00
09523,14328065,0,0,0,-2.773166,-0.359033,9.184629,0,0,0,0,0,0,0.00
09527,14328132,-2.730671,-0.386435,9.131489,0,0,0,0.581471,-0.608359,-0.445707,0.585044,16.002999,144.029418,28.89
09530,14328184,0,0,0,-2.734400,-0.612583,9.093626,0,0,0,0,0,0,0.00
09531,14328204,0,0,0,-2.727611,-0.713094,9.295146,0,0,0,0,0,0,0.00
09533,14328243,0,0,0,-2.577165,-0.817726,9.495583,0,0,0,0,0,0,0.00
09535,14328283,0,0,0,-2.354117,-0.965111,9.772264,0,0,0,0,0,0,0.00
09540,14328362,0,0,0,-2.380199,-0.797688,10.218175,0,0,0,0,0,0,0.00
09542,14328402,0,0,0,-2.380850,-0.687579,10.198821,0,0,0,0,0,0,0.00
09544,14328442,0,0,0,-2.479487,-0.515680,9.925952,0,0,0,0,0,0,0.00
09546,14328481,0,0,0,-2.646659,-0.143025,9.576554,0,0,0,0,0,0,0.00
09551,14328561,0,0,0,-2.919830,0.334463,9.203815,0,0,0,0,0,0,0.00
09552,14328581,0,0,0,-2.824146,0.358843,9.207846,0,0,0,0,0,0,0.00
09554,14328620,0,0,0,-2.681856,0.469618,9.096293,0,0,0,0,0,0,0.00
09556,14328660,0,0,0,-2.671921,0.503173,9.163301,0,0,0,0,0,0,0.00
09558,14328700,0,0,0,-2.603336,0.460398,9.340282,0,0,0,0,0,0,0.00
09560,14328739,0,0,0,-2.635585,0.407582,9.474885,0,0,0,0,0,0,0.00
09563,14328779,0,0,0,-2.698155,0.455167,9.460897,0,0,0,0,0,0,0.00
09565,14328819,0,0,0,-2.933865,0.679083,9.452735,0,0,0,0,0,0,0.00
09567,14328859,0,0,0,-2.984503,0.913440,9.232154,0,0,0,0,0,0,0.00
09569,14328898,0,0,0,-2.996402,1.028290,8.997081,0,0,0,0,0,0,0.00
09571,14328938,0,0,0,-2.965584,1.105042,8.689815,0,0,0,0,0,0,0.00
09574,14328978,0,0,0,-3.005615,1.162312,8.498207,0,0,0,0,0,0,0.00
09576,14329017,0,0,0,-3.096492,1.109229,8.479799,0,0,0,0,0,0,0.00
09578,14329057,0,0,0,-3.157937,1.022769,8.533154,0,0,0,0,0,0,0.00
09580,14329097,0,0,0,-3.074567,0.831655,8.676691,0,0,0,0,0,0,0.00
09582,14329136,0,0,0,-3.034454,0.716936,8.844413,0,0,0,0,0,0,0.00
09585,14329176,0,0,0,-2.946083,0.583292,9.050161,0,0,0,0,0,0,0.00
09587,14329216,0,0,0,-2.876747,0.368174,9.222617,0,0,0,0,0,0,0.00
09588,14329236,0,0,0,-2.861411,0.243770,9.275450,0,0,0,0,0,0,0.00
09591,14329295,0,0,0,-2.771975,0.157999,9.648956,0,0,0,0,0,0,0.00
09592,14329315,0,0,0,-2.629086,0.129941,9.532825,0,0,0,0,0,0,0.00
09595,14329355,0,0,0,-2.506941,0.092198,9.829279,0,0,0,0,0,0,0.00
09597,14329394,0,0,0,-2.675826,0.249402,9.753581,0,0,0,0,0,0,0.00
09599,14329434,0,0,0,-2.932188,0.224288,9.400700,0,0,0,0,0,0,0.00
09601,14329474,0,0,0,-3.089823,0.204427,8.812082,0,0,0,0,0,0,0.00
09603,14329514,0,0,0,-2.980220,0.310258,8.806288,0,0,0,0,0,0,0.00
09606,14329553,0,0,0,-2.998056,0.415491,9.041233,0,0,0,0,0,0,0.00
09608,14329593,0,0,0,-2.767719,0.335174,9.058795,0,0,0,0,0,0,0.00
09610,14329633,0,0,0,-2.575185,-0.046926,8.962037,0,0,0,0,0,0,0.00
09612,14329672,0,0,0,-2.788425,-0.411761,9.036170,0,0,0,0,0,0,0.00
09614,14329712,0,0,0,-2.982649,-0.522779,9.244025,0,0,0,0,0,0,0.00
09616,14329732,-2.807473,-0.383056,9.103009,0,0,0,0.508511,-0.641315,-0.466248,0.555906,16.129901,150.383401,28.89
09619,14329791,0,0,0,-2.839022,-0.656157,9.161626,0,0,0,0,0,0,0.00
09621,14329831,0,0,0,-2.853773,-0.603563,9.142473,0,0,0,0,0,0,0.00
09623,14329871,0,0,0,-2.689442,-0.459188,9.428724,0,0,0,0,0,0,0.00
09624,14329891,0,0,0,-2.622777,-0.411005,9.408959,0,0,0,0,0,0,0.00
09626,14329930,0,0,0,-2.512487,-0.439219,9.412964,0,0,0,0,0,0,0.00
09629,14329970,0,0,0,-2.516520,-0.420090,9.523260,0,0,0,0,0,0,0.00
09631,14330010,0,0,0,-2.607105,-0.272104,9.662779,0,0,0,0,0,0,0.00
09633,14330049,0,0,0,-2.593340,-0.157143,9.652900,0,0,0,0,0,0,0.00
09637,14330129,0,0,0,-2.648389,0.235173,9.575963,0,0,0,0,0,0,0.00
09640,14330168,0,0,0,-2.664893,0.326065,9.350554,0,0,0,0,0,0,0.00
09642,14330208,0,0,0,-2.642773,0.283090,9.086705,0,0,0,0,0,0,0.00
09644,14330248,0,0,0,-2.647911,0.359665,9.086621,0,0,0,0,0,0,0.00
09646,14330288,0,0,0,-2.696653,0.483913,9.048429,0,0,0,0,0,0,0.00
09648,14330327,0,0,0,-2.560862,0.154210,9.076699,0,0,0,0,0,0,0.00
09651,14330367,0,0,0,-2.752830,0.641649,8.684146,0,0,0,0,0,0,0.00
09653,14330407,0,0,0,-2.283065,0.241648,9.765000,0,0,0,0,0,0,0.00
09654,14330427,0,0,0,-2.371286,0.246036,9.501912,0,0,0,0,0,0,0.00
09657,14330486,0,0,0,-2.701417,-0.215080,9.260583,0,0,0,0,0,0,0.00
09658,14330506,0,0,0,-2.870183,0.076169,9.280579,0,0,0,0,0,0,0.00
09661,14330546,0,0,0,-2.816660,0.354079,9.557867,0,0,0,0,0,0,0.00
09663,14330585,0,0,0,-2.284154,0.423566,9.731150,0,0,0,0,0,0,0.00
09665,14330625,0,0,0,-2.143529,0.208802,9.207720,0,0,0,0,0,0,0.00
09667,14330665,0,0,0,-2.209482,0.165406,9.323380,0,0,0,0,0,0,0.00
09669,14330704,0,0,0,-2.624775,0.153900,9.484799,0,0,0,0,0,0,0.00
09671,14330732,-2.341871,0.154364,9.445403,0,0,0,0.460186,-0.649260,-0.484789,0.723737,14.134527,153.139830,28.89
09674,14330784,0,0,0,-2.254766,0.079013,9.611590,0,0,0,0,0,0,0.00
09676,14330823,0,0,0,-2.447441,0.058973,9.450038,0,0,0,0,0,0,0.00
09678,14330863,0,0,0,-2.379666,-0.127420,9.435435,0,0,0,0,0,0,0.00
09680,14330903,0,0,0,-2.302186,-0.045680,9.597763,0,0,0,0,0,0,0.00
09682,14330932,-2.344824,-0.055059,9.490911,0,0,0,0.452808,-0.652239,-0.488393,0.762737,13.722661,153.455642,28.89
09685,14330982,0,0,0,-2.216474,-0.006982,9.558687,0,0,0,0,0,0,0.00
09687,14331022,0,0,0,-2.158807,-0.068950,9.548759,0,0,0,0,0,0,0.00
09689,14331062,0,0,0,-2.339915,0.069038,9.741731,0,0,0,0,0,0,0.00
09693,14331132,-2.296376,0.169814,9.827400,0,0,0,0.445434,-0.653709,-0.492982,0.743043,13.388232,153.892459,28.89
09696,14331181,0,0,0,-1.985886,0.597299,10.016328,0,0,0,0,0,0,0.00
09697,14331201,0,0,0,-2.101982,0.663787,9.902010,0,0,0,0,0,0,0.00
09699,14331240,0,0,0,-2.107123,0.548870,9.787141,0,0,0,0,0,0,0.00
09701,14331280,0,0,0,-2.093649,0.486702,9.633682,0,0,0,0,0,0,0.00
09706,14331359,0,0,0,-2.383144,0.490155,9.348144,0,0,0,0,0,0,0.00
09708,14331399,0,0,0,-2.434082,0.068649,8.697019,0,0,0,0,0,0,0.00
09710,14331439,0,0,0,-2.542971,0.135160,8.899149,0,0,0,0,0,0,0.00
09712,14331478,0,0,0,-2.550611,0.072882,9.115103,0,0,0,0,0,0,0.00
09715,14331538,0,0,0,-2.383358,-0.256666,8.874587,0,0,0,0,0,0,0.00
09719,14331598,0,0,0,-2.269344,-0.040725,9.511176,0,0,0,0,0,0,0.00
09720,14331617,0,0,0,-2.263961,0.045468,9.640475,0,0,0,0,0,0,0.00
09722,14331657,0,0,0,-2.057305,0.036850,9.734832,0,0,0,0,0,0,0.00
09724,14331697,0,0,0,-2.067191,-0.063728,9.634362,0,0,0,0,0,0,0.00
09726,14331736,0,0,0,-2.196008,0.012268,9.740718,0,0,0,0,0,0,0.00
09729,14331776,0,0,0,-2.220422,0.131841,9.750303,0,0,0,0,0,0,0.00
09731,14331816,0,0,0,-2.048571,0.132640,9.681861,0,0,0,0,0,0,0.00
09733,14331856,0,0,0,-2.116395,0.041369,9.524271,0,0,0,0,0,0,0.00
09735,14331895,0,0,0,-2.261607,0.088576,9.347864,0,0,0,0,0,0,0.00
09737,14331935,0,0,0,-2.156735,0.117788,9.303863,0,0,0,0,0,0,0.00
09740,14331975,0,0,0,-2.093703,-0.030329,9.318007,0,0,0,0,0,0,0.00
09742,14332014,0,0,0,-1.820449,0.291666,10.178607,0,0,0,0,0,0,0.00
09744,14332054,0,0,0,-1.983386,0.195165,10.103270,0,0,0,0,0,0,0.00
09746,14332094,0,0,0,-2.136076,-0.672009,8.403418,0,0,0,0,0,0,0.00
09748,14332133,0,0,0,-2.229004,-0.705963,8.754248,0,0,0,0,0,0,0.00
09751,14332173,0,0,0,-2.738015,-0.057263,9.577098,0,0,0,0,0,0,0.00
09753,14332213,0,0,0,-2.271725,0.442773,10.114652,0,0,0,0,0,0,0.00
09754,14332233,0,0,0,-1.794375,0.358820,9.871391,0,0,0,0,0,0,0.00
09756,14332272,0,0,0,-1.558570,-0.090077,9.131817,0,0,0,0,0,0,0.00
09758,14332312,0,0,0,-1.969559,-0.139860,9.206944,0,0,0,0,0,0,0.00
09761,14332352,0,0,0,-2.272547,0.069362,9.784367,0,0,0,0,0,0,0.00
09763,14332391,0,0,0,-2.071125,0.070294,9.825996,0,0,0,0,0,0,0.00
09765,14332431,0,0,0,-1.766531,-0.081479,9.493041,0,0,0,0,0,0,0.00
09767,14332471,0,0,0,-1.813028,-0.014679,9.713879,0,0,0,0,0,0,0.00
09769,14332510,0,0,0,-2.101262,0.041436,9.624862,0,0,0,0,0,0,0.00
09772,14332550,0,0,0,-1.971418,-0.058497,9.638423,0,0,0,0,0,0,0.00
09774,14332590,0,0,0,-1.845218,-0.043537,9.244212,0,0,0,0,0,0,0.00
09776,14332630,0,0,0,-1.967607,0.171316,9.647616,0,0,0,0,0,0,0.00
09778,14332669,0,0,0,-1.963345,0.037293,9.499139,0,0,0,0,0,0,0.00
09780,14332709,0,0,0,-1.706871,-0.157788,9.109073,0,0,0,0,0,0,0.00
09782,14332732,-1.863337,-0.010881,9.410488,0,0,0,0.403565,-0.662622,-0.511979,1.023978,10.671741,155.204252,28.88
09785,14332788,0,0,0,-2.174733,0.486302,10.300869,0,0,0,0,0,0,0.00
09787,14332828,0,0,0,-1.556412,0.015244,9.476907,0,0,0,0,0,0,0.00
09789,14332868,0,0,0,-1.418150,-0.376672,9.164778,0,0,0,0,0,0,0.00
09791,14332907,0,0,0,-2.033609,-0.053999,9.648478,0,0,0,0,0,0,0.00
09793,14332932,-1.666886,-0.176987,9.419014,0,0,0,0.396169,-0.664615,-0.514570,0.988660,10.342036,155.632379,28.88
09796,14332987,0,0,0,-1.681269,0.072114,9.463376,0,0,0,0,0,0,0.00
09798,14333027,0,0,0,-1.667932,0.096117,9.343349,0,0,0,0,0,0,0.00
09800,14333066,0,0,0,-1.806071,0.349202,9.588563,0,0,0,0,0,0,0.00
09803,14333126,0,0,0,-1.676803,0.455121,9.649755,0,0,0,0,0,0,0.00
09807,14333185,0,0,0,-1.658269,0.349891,9.505918,0,0,0,0,0,0,0.00
09808,14333205,0,0,0,-1.686066,0.354544,9.630803,0,0,0,0,0,0,0.00
09810,14333245,0,0,0,-1.723086,0.306494,9.770229,0,0,0,0,0,0,0.00
09812,14333285,0,0,0,-1.618381,0.460176,9.778780,0,0,0,0,0,0,0.00
09817,14333364,0,0,0,-1.546729,0.192419,9.596437,0,0,0,0,0,0,0.00
09819,14333404,0,0,0,-1.743621,0.143636,9.492507,0,0,0,0,0,0,0.00
09821,14333443,0,0,0,-1.786954,0.100349,9.435360,0,0,0,0,0,0,0.00
09823,14333483,0,0,0,-1.734515,0.062295,9.382273,0,0,0,0,0,0,0.00
09825,14333523,0,0,0,-1.593766,0.072515,9.635349,0,0,0,0,0,0,0.00
09828,14333562,0,0,0,-1.584143,0.278414,9.764425,0,0,0,0,0,0,0.00
09829,14333582,0,0,0,-1.568885,0.283267,9.884189,0,0,0,0,0,0,0.00
09831,14333622,0,0,0,-1.450827,0.049244,9.528801,0,0,0,0,0,0,0.00
09833,14333662,0,0,0,-1.464639,-0.199763,9.452576,0,0,0,0,0,0,0.00
09835,14333701,0,0,0,-1.726537,-0.234495,9.622460,0,0,0,0,0,0,0.00
09838,14333741,0,0,0,-1.682661,-0.229508,9.727620,0,0,0,0,0,0,0.00
09840,14333781,0,0,0,-1.428465,-0.324078,9.725843,0,0,0,0,0,0,0.00
09842,14333820,0,0,0,-1.423654,-0.257033,9.768860,0,0,0,0,0,0,0.00
09844,14333860,0,0,0,-1.437262,-0.237950,9.879228,0,0,0,0,0,0,0.00
09846,14333900,0,0,0,-1.433109,-0.170905,9.835930,0,0,0,0,0,0,0.00
09848,14333939,0,0,0,-1.475702,-0.175893,9.898602,0,0,0,0,0,0,0.00
09851,14333979,0,0,0,-1.442214,-0.065628,9.960513,0,0,0,0,0,0,0.00
09853,14334019,0,0,0,-1.439083,-0.008160,9.778169,0,0,0,0,0,0,0.00
09855,14334059,0,0,0,-1.325608,0.073758,9.638108,0,0,0,0,0,0,0.00
09857,14334098,0,0,0,-1.435822,0.221654,9.715436,0,0,0,0,0,0,0.00
09859,14334138,0,0,0,-1.426413,0.298295,9.739220,0,0,0,0,0,0,0.00
09862,14334178,0,0,0,-1.259918,0.174603,9.522358,0,0,0,0,0,0,0.00
09864,14334217,0,0,0,-1.325510,0.212590,9.733795,0,0,0,0,0,0,0.00
09866,14334257,0,0,0,-1.478939,0.379436,9.806625,0,0,0,0,0,0,0.00
09868,14334297,0,0,0,-1.152322,0.361797,9.928858,0,0,0,0,0,0,0.00
09870,14334336,0,0,0,-1.190989,0.457365,9.938590,0,0,0,0,0,0,0.00
09873,14334376,0,0,0,-1.282171,0.471306,9.920077,0,0,0,0,0,0,0.00
09875,14334416,0,0,0,-1.229759,0.567296,9.943504,0,0,0,0,0,0,0.00
09876,14334436,0,0,0,-1.253479,0.615059,10.001152,0,0,0,0,0,0,0.00
09878,14334475,0,0,0,-1.264247,0.715548,9.905165,0,0,0,0,0,0,0.00
09880,14334515,0,0,0,-1.216846,0.667895,9.813767,0,0,0,0,0,0,0.00
09883,14334555,0,0,0,-1.145658,0.701739,9.750833,0,0,0,0,0,0,0.00
09885,14334594,0,0,0,-1.218472,0.782791,9.669731,0,0,0,0,0,0,0.00
09887,14334634,0,0,0,-1.237557,0.792277,9.684248,0,0,0,0,0,0,0.00
09889,14334674,0,0,0,-1.247386,0.662974,9.574233,0,0,0,0,0,0,0.00
09891,14334714,0,0,0,-1.332798,0.590766,9.632541,0,0,0,0,0,0,0.00
09894,14334753,0,0,0,-1.341086,0.437527,9.709578,0,0,0,0,0,0,0.00
09896,14334793,0,0,0,-0.681294,-0.468999,9.039451,0,0,0,0,0,0,0.00
09898,14334833,0,0,0,-1.516275,0.340981,9.284263,0,0,0,0,0,0,0.00
09900,14334872,0,0,0,-1.766925,-0.019244,9.478559,0,0,0,0,0,0,0.00
09902,14334912,0,0,0,-1.176857,-0.413860,9.388394,0,0,0,0,0,0,0.00
09905,14334952,0,0,0,-1.003489,-0.752960,9.315690,0,0,0,0,0,0,0.00
09907,14334991,0,0,0,-0.886862,-0.991793,9.396710,0,0,0,0,0,0,0.00
09909,14335031,0,0,0,-0.848536,-1.049084,9.991150,0,0,0,0,0,0,0.00
09911,14335071,0,0,0,-0.999309,-0.705087,9.891039,0,0,0,0,0,0,0.00
09913,14335110,0,0,0,-1.046139,-0.757967,9.996980,0,0,0,0,0,0,0.00
09915,14335132,-0.938532,-0.791158,9.961970,0,0,0,0.331524,-0.671077,-0.537243,0.892599,7.285980,157.965965,28.88
09918,14335190,0,0,0,-1.125458,-1.031200,9.480106,0,0,0,0,0,0,0.00
09920,14335230,0,0,0,-1.243298,-0.964733,9.763826,0,0,0,0,0,0,0.00
09922,14335269,0,0,0,-1.418015,-0.587335,9.683025,0,0,0,0,0,0,0.00
09924,14335309,0,0,0,-1.433145,-0.443782,9.668525,0,0,0,0,0,0,0.00
09925,14335329,0,0,0,-1.276439,-0.232408,9.623838,0,0,0,0,0,0,0.00
09928,14335369,0,0,0,-1.471241,0.015622,9.970194,0,0,0,0,0,0,0.00
09930,14335408,0,0,0,-1.438938,0.216845,9.931264,0,0,0,0,0,0,0.00
09932,14335448,0,0,0,-1.364423,0.537950,9.848662,0,0,0,0,0,0,0.00
09936,14335527,0,0,0,-1.481218,1.102321,9.939761,0,0,0,0,0,0,0.00
09939,14335567,0,0,0,-1.515450,1.250571,9.934988,0,0,0,0,0,0,0.00
09941,14335607,0,0,0,-1.319724,1.337654,9.909387,0,0,0,0,0,0,0.00
09943,14335646,0,0,0,-1.086460,1.295655,9.706274,0,0,0,0,0,0,0.00
09945,14335686,0,0,0,-1.200140,1.194589,9.808002,0,0,0,0,0,0,0.00
09947,14335726,0,0,0,-1.137104,1.285837,9.965630,0,0,0,0,0,0,0.00
09950,14335765,0,0,0,-1.154315,1.142130,10.133832,0,0,0,0,0,0,0.00
09952,14335805,0,0,0,-1.101190,0.946094,10.076197,0,0,0,0,0,0,0.00
09954,14335845,0,0,0,-1.124394,-0.016269,9.598362,0,0,0,0,0,0,0.00
09956,14335885,0,0,0,-1.570559,-0.200252,9.376653,0,0,0,0,0,0,0.00
09958,14335924,0,0,0,-1.532049,-0.085178,9.472087,0,0,0,0,0,0,0.00
09961,14335964,0,0,0,-1.099856,-0.083179,9.636647,0,0,0,0,0,0,0.00
09962,14335984,0,0,0,-1.065613,0.022297,9.794470,0,0,0,0,0,0,0.00
09964,14336023,0,0,0,-1.232722,0.208226,9.968077,0,0,0,0,0,0,0.00
09966,14336063,0,0,0,-1.095132,0.299828,9.856591,0,0,0,0,0,0,0.00
09968,14336103,0,0,0,-1.120012,0.280568,9.722538,0,0,0,0,0,0,0.00
09971,14336143,0,0,0,-1.278966,0.208025,9.556017,0,0,0,0,0,0,0.00
09973,14336182,0,0,0,-1.284812,0.150554,9.383515,0,0,0,0,0,0,0.00
09975,14336222,0,0,0,-1.280391,0.126639,9.321180,0,0,0,0,0,0,0.00
09977,14336262,0,0,0,-1.265345,0.121919,9.407392,0,0,0,0,0,0,0.00
09979,14336301,0,0,0,-1.235422,0.165139,9.589324,0,0,0,0,0,0,0.00
09981,14336332,-1.255311,0.132252,9.487218,0,0,0,0.321606,-0.674125,-0.535861,1.279588,6.874594,158.355363,28.88
09984,14336381,0,0,0,-1.099433,0.137037,9.823316,0,0,0,0,0,0,0.00
09986,14336420,0,0,0,-1.204737,0.170059,9.848039,0,0,0,0,0,0,0.00
09988,14336460,0,0,0,-1.142753,0.050665,9.742259,0,0,0,0,0,0,0.00
09990,14336500,0,0,0,-1.123618,-0.049780,9.679934,0,0,0,0,0,0,0.00
09992,14336540,0,0,0,-1.010380,0.022542,10.129734,0,0,0,0,0,0,0.00
09995,14336579,0,0,0,-1.106726,0.271038,10.202000,0,0,0,0,0,0,0.00
09997,14336619,0,0,0,-1.035396,0.386267,10.206070,0,0,0,0,0,0,0.00
09999,14336659,0,0,0,-1.016930,0.223587,10.019167,0,0,0,0,0,0,0.00
10003,14336738,0,0,0,-1.156574,0.036237,9.804729,0,0,0,0,0,0,0.00
10006,14336778,0,0,0,-1.161983,0.131961,9.780639,0,0,0,0,0,0,0.00
10007,14336798,0,0,0,-1.191401,0.146190,9.699316,0,0,0,0,0,0,0.00
10009,14336837,0,0,0,-1.235978,0.198650,9.536525,0,0,0,0,0,0,0.00
10011,14336877,0,0,0,-1.225935,0.136459,9.560525,0,0,0,0,0,0,0.00
10013,14336917,0,0,0,-1.321342,0.083355,9.575720,0,0,0,0,0,0,0.00
10016,14336956,0,0,0,-1.023254,0.367184,9.903893,0,0,0,0,0,0,0.00
10018,14336996,0,0,0,-0.892214,0.382146,10.142650,0,0,0,0,0,0,0.00
10020,14337036,0,0,0,-0.994157,0.214123,9.860758,0,0,0,0,0,0,0.00
10022,14337075,0,0,0,-1.086065,0.965351,8.934727,0,0,0,0,0,0,0.00
10024,14337115,0,0,0,-1.088915,1.314784,10.022763,0,0,0,0,0,0,0.00
10027,14337155,0,0,0,-0.985597,0.396085,9.836425,0,0,0,0,0,0,0.00
10029,14337194,0,0,0,-1.280018,2.060696,11.149959,0,0,0,0,0,0,0.00
10031,14337234,0,0,0,-0.259058,5.124585,11.238025,0,0,0,0,0,0,0.00
10033,14337274,0,0,0,-0.883786,2.325883,9.899705,0,0,0,0,0,0,0.00
10035,14337314,0,0,0,-1.416207,-0.769232,9.184572,0,0,0,0,0,0,0.00
10036,14337333,0,0,0,-1.464801,-0.893925,9.017298,0,0,0,0,0,0,0.00
10040,14337393,0,0,0,-1.080419,-0.705401,8.050191,0,0,0,0,0,0,0.00
10041,14337413,0,0,0,-1.308407,-0.821341,7.596535,0,0,0,0,0,0,0.00
10043,14337452,0,0,0,-1.922765,-1.063550,7.261103,0,0,0,0,0,0,0.00
10045,14337492,0,0,0,-2.483634,-0.960847,7.864627,0,0,0,0,0,0,0.00
10047,14337532,0,0,0,-2.991447,-0.886626,8.501364,0,0,0,0,0,0,0.00
10050,14337572,0,0,0,-2.749311,-1.316373,8.600918,0,0,0,0,0,0,0.00
10052,14337611,0,0,0,-1.555455,-1.540633,8.673746,0,0,0,0,0,0,0.00
10054,14337651,0,0,0,-1.192489,-1.424072,9.246264,0,0,0,0,0,0,0.00
10056,14337691,0,0,0,-1.560909,-1.243884,10.016047,0,0,0,0,0,0,0.00
10058,14337730,0,0,0,-1.096275,-1.078962,10.136941,0,0,0,0,0,0,0.00
10061,14337770,0,0,0,-0.954240,-0.848505,10.063564,0,0,0,0,0,0,0.00
10063,14337810,0,0,0,-1.443302,-0.601830,10.124425,0,0,0,0,0,0,0.00
10065,14337849,0,0,0,-1.498547,-0.391432,9.913506,0,0,0,0,0,0,0.00
10067,14337889,0,0,0,-1.439621,-0.170928,9.610592,0,0,0,0,0,0,0.00
10069,14337929,0,0,0,-1.264053,0.160218,9.599140,0,0,0,0,0,0,0.00
10072,14337969,0,0,0,-1.182568,0.730308,9.324269,0,0,0,0,0,0,0.00
10074,14338008,0,0,0,-1.064289,0.936717,9.260700,0,0,0,0,0,0,0.00
10076,14338048,0,0,0,-1.111271,1.037028,9.438329,0,0,0,0,0,0,0.00
10078,14338088,0,0,0,-1.204826,1.108396,9.769813,0,0,0,0,0,0,0.00
10080,14338127,0,0,0,-1.086802,1.013183,10.119140,0,0,0,0,0,0,0.00
10083,14338167,0,0,0,-0.879108,0.889668,10.280808,0,0,0,0,0,0,0.00
10084,14338187,0,0,0,-0.854746,0.741371,10.247292,0,0,0,0,0,0,0.00
10086,14338227,0,0,0,-0.505174,1.303089,11.212430,0,0,0,0,0,0,0.00
10088,14338266,0,0,0,-0.861881,0.741349,9.940435,0,0,0,0,0,0,0.00
10090,14338306,0,0,0,-1.132635,0.381036,10.010202,0,0,0,0,0,0,0.00
10093,14338346,0,0,0,-1.173190,0.352133,9.698850,0,0,0,0,0,0,0.00
10095,14338385,0,0,0,-0.960396,0.353111,9.975372,0,0,0,0,0,0,0.00
10097,14338425,0,0,0,-0.996775,0.156653,10.110234,0,0,0,0,0,0,0.00
10099,14338465,0,0,0,-1.071156,0.022253,10.322014,0,0,0,0,0,0,0.00
10101,14338504,0,0,0,-0.905182,0.128331,10.800134,0,0,0,0,0,0,0.00
10103,14338532,-0.996904,0.087460,10.479540,0,0,0,0.328544,-0.673600,-0.535795,1.242701,6.843504,157.702974,28.88
10106,14338584,0,0,0,-0.757055,0.287021,10.228096,0,0,0,0,0,0,0.00
10108,14338623,0,0,0,-1.157964,0.203793,9.722948,0,0,0,0,0,0,0.00
10110,14338663,0,0,0,-1.266925,-0.045637,9.100761,0,0,0,0,0,0,0.00
10112,14338703,0,0,0,-1.355101,-0.299766,8.689425,0,0,0,0,0,0,0.00
10114,14338732,-1.321482,-0.105354,8.997936,0,0,0,0.334496,-0.675080,-0.535259,1.171640,7.266557,157.526399,28.88
10117,14338782,0,0,0,-1.827411,-0.134407,9.014039,0,0,0,0,0,0,0.00
10119,14338822,0,0,0,-1.558239,-0.042204,9.203670,0,0,0,0,0,0,0.00
10121,14338862,0,0,0,-1.279915,0.078766,9.354821,0,0,0,0,0,0,0.00
10125,14338932,-1.272723,0.116698,9.572978,0,0,0,0.335999,-0.674558,-0.536743,1.284476,7.165077,157.472127,28.88
10128,14338981,0,0,0,-1.074984,-0.030408,9.789830,0,0,0,0,0,0,0.00
10129,14339001,0,0,0,-1.261068,-0.179681,9.786684,0,0,0,0,0,0,0.00
10131,14339040,0,0,0,-0.380406,-3.895466,11.277337,0,0,0,0,0,0,0.00
10133,14339080,0,0,0,-1.133813,-1.399931,11.298244,0,0,0,0,0,0,0.00
10138,14339159,0,0,0,-1.382143,-0.027020,9.072832,0,0,0,0,0,0,0.00
10140,14339199,0,0,0,-1.485733,-0.123235,8.618201,0,0,0,0,0,0,0.00
10142,14339239,0,0,0,-2.258728,0.390220,8.652016,0,0,0,0,0,0,0.00
10144,14339278,0,0,0,-1.788994,-0.258679,8.328194,0,0,0,0,0,0,0.00
10147,14339338,0,0,0,-1.864761,-1.987319,9.285830,0,0,0,0,0,0,0.00
10151,14339398,0,0,0,-0.393216,1.557390,9.724576,0,0,0,0,0,0,0.00
10152,14339417,0,0,0,-0.048921,1.276538,9.497026,0,0,0,0,0,0,0.00
10154,14339457,0,0,0,-0.375015,1.356411,9.480188,0,0,0,0,0,0,0.00
10156,14339497,0,0,0,-0.768841,1.613106,9.477971,0,0,0,0,0,0,0.00
10158,14339536,0,0,0,-0.682302,1.503396,9.458308,0,0,0,0,0,0,0.00
10161,14339576,0,0,0,-0.880382,1.397143,9.790868,0,0,0,0,0,0,0.00
10163,14339616,0,0,0,-1.123161,1.506121,10.041900,0,0,0,0,0,0,0.00
10165,14339656,0,0,0,-1.316063,1.050415,10.216728,0,0,0,0,0,0,0.00
10167,14339695,0,0,0,-1.125832,0.333184,10.245205,0,0,0,0,0,0,0.00
10169,14339735,0,0,0,-0.788145,-0.187078,10.262658,0,0,0,0,0,0,0.00
10172,14339775,0,0,0,-1.074819,-0.207559,10.332000,0,0,0,0,0,0,0.00
10174,14339814,0,0,0,-1.057115,-0.035128,10.245272,0,0,0,0,0,0,0.00
10176,14339854,0,0,0,-1.023348,0.099093,9.731686,0,0,0,0,0,0,0.00
10178,14339894,0,0,0,-1.182496,-0.112302,10.083301,0,0,0,0,0,0,0.00
10180,14339933,0,0,0,-1.022046,0.271438,10.004743,0,0,0,0,0,0,0.00
10183,14339973,0,0,0,-0.970132,0.396152,9.980172,0,0,0,0,0,0,0.00
10185,14340013,0,0,0,-1.143620,0.304393,9.780224,0,0,0,0,0,0,0.00
10187,14340052,0,0,0,-1.169099,0.304282,9.579007,0,0,0,0,0,0,0.00
10189,14340092,0,0,0,-1.169920,0.323431,9.483073,0,0,0,0,0,0,0.00
10191,14340132,0,0,0,-1.246387,0.356586,9.521964,0,0,0,0,0,0,0.00
10194,14340172,0,0,0,-1.193588,0.399917,9.564653,0,0,0,0,0,0,0.00
10195,14340191,0,0,0,-1.136404,0.419333,9.540213,0,0,0,0,0,0,0.00
10197,14340231,0,0,0,-1.179318,0.404771,9.554947,0,0,0,0,0,0,0.00
10199,14340271,0,0,0,-1.150709,0.366606,9.516427,0,0,0,0,0,0,0.00
10201,14340311,0,0,0,-1.145892,0.352266,9.511619,0,0,0,0,0,0,0.00
10204,14340350,0,0,0,-1.150248,0.337882,9.559628,0,0,0,0,0,0,0.00
10206,14340390,0,0,0,-1.139874,0.323564,9.655483,0,0,0,0,0,0,0.00
10208,14340430,0,0,0,-1.119813,0.309292,9.765649,0,0,0,0,0,0,0.00
10210,14340469,0,0,0,-1.129118,0.290097,9.789729,0,0,0,0,0,0,0.00
10212,14340509,0,0,0,-1.138307,0.237392,9.809064,0,0,0,0,0,0,0.00
10215,14340549,0,0,0,-1.133298,0.213479,9.823450,0,0,0,0,0,0,0.00
10217,14340588,0,0,0,-1.104754,0.213612,9.799256,0,0,0,0,0,0,0.00
10219,14340628,0,0,0,-1.128598,0.232650,9.823384,0,0,0,0,0,0,0.00
10221,14340668,0,0,0,-1.114842,0.261440,9.760893,0,0,0,0,0,0,0.00
10223,14340707,0,0,0,-1.115202,0.275803,9.722508,0,0,0,0,0,0,0.00
10225,14340732,-1.118130,0.263212,9.756463,0,0,0,0.321578,-0.685685,-0.528479,2.065346,6.622367,158.212523,28.88
10228,14340787,0,0,0,-1.139669,0.294840,9.665118,0,0,0,0,0,0,0.00
10230,14340827,0,0,0,-1.130407,0.323608,9.641025,0,0,0,0,0,0,0.00
10232,14340866,0,0,0,-1.120846,0.342803,9.650512,0,0,0,0,0,0,0.00
10234,14340906,0,0,0,-1.163937,0.342603,9.650839,0,0,0,0,0,0,0.00
10235,14340926,0,0,0,-1.178264,0.342536,9.655744,0,0,0,0,0,0,0.00
10239,14340985,0,0,0,-1.183088,0.342514,9.650985,0,0,0,0,0,0,0.00
10240,14341005,0,0,0,-1.173323,0.309047,9.655760,0,0,0,0,0,0,0.00
10242,14341045,0,0,0,-1.130371,0.323608,9.645821,0,0,0,0,0,0,0.00
10246,14341124,0,0,0,-1.134499,0.280480,9.708282,0,0,0,0,0,0,0.00
10249,14341164,0,0,0,-1.120214,0.290121,9.703362,0,0,0,0,0,0,0.00
10251,14341204,0,0,0,-1.129462,0.266141,9.732244,0,0,0,0,0,0,0.00
10253,14341243,0,0,0,-1.129506,0.275716,9.732229,0,0,0,0,0,0,0.00
10255,14341283,0,0,0,-1.115090,0.280569,9.741703,0,0,0,0,0,0,0.00
10257,14341323,0,0,0,-1.134512,0.299630,9.717843,0,0,0,0,0,0,0.00
10260,14341362,0,0,0,-1.144030,0.294798,9.722718,0,0,0,0,0,0,0.00
10261,14341382,0,0,0,-1.139191,0.299607,9.732265,0,0,0,0,0,0,0.00
10263,14341422,0,0,0,-1.158715,0.309093,9.689238,0,0,0,0,0,0,0.00
10265,14341462,0,0,0,-1.149241,0.323500,9.684348,0,0,0,0,0,0,0.00
10267,14341501,0,0,0,-1.134995,0.333141,9.674633,0,0,0,0,0,0,0.00
10270,14341541,0,0,0,-1.149293,0.318712,9.674765,0,0,0,0,0,0,0.00
10272,14341581,0,0,0,-1.115829,0.314081,9.664927,0,0,0,0,0,0,0.00
10274,14341620,0,0,0,-1.125193,0.299674,9.684203,0,0,0,0,0,0,0.00
10276,14341660,0,0,0,-1.120325,0.290121,9.688977,0,0,0,0,0,0,0.00
10278,14341700,0,0,0,-1.148963,0.294776,9.703573,0,0,0,0,0,0,0.00
10280,14341740,0,0,0,-1.153773,0.299541,9.703602,0,0,0,0,0,0,0.00
10283,14341779,0,0,0,-1.144102,0.294798,9.713128,0,0,0,0,0,0,0.00
10285,14341819,0,0,0,-1.153715,0.318689,9.722754,0,0,0,0,0,0,0.00
10287,14341859,0,0,0,-1.139352,0.294820,9.708296,0,0,0,0,0,0,0.00
10289,14341898,0,0,0,-1.134695,0.323566,9.708215,0,0,0,0,0,0,0.00
10291,14341938,0,0,0,-1.139615,0.328331,9.693858,0,0,0,0,0,0,0.00
10294,14341978,0,0,0,-1.129820,0.304440,9.708208,0,0,0,0,0,0,0.00
10296,14342017,0,0,0,-1.134790,0.304418,9.684269,0,0,0,0,0,0,0.00
10298,14342057,0,0,0,-1.120296,0.275760,9.684204,0,0,0,0,0,0,0.00
10300,14342097,0,0,0,-1.139388,0.294820,9.703501,0,0,0,0,0,0,0.00
10302,14342136,0,0,0,-1.134695,0.299630,9.693867,0,0,0,0,0,0,0.00
10305,14342176,0,0,0,-1.134461,0.280480,9.713078,0,0,0,0,0,0,0.00
10307,14342216,0,0,0,-1.153906,0.304328,9.689209,0,0,0,0,0,0,0.00
10308,14342236,0,0,0,-1.168152,0.294687,9.698924,0,0,0,0,0,0,0.00
10311,14342295,0,0,0,-1.134805,0.323566,9.693830,0,0,0,0,0,0,0.00
10312,14342315,0,0,0,-1.144549,0.328309,9.674713,0,0,0,0,0,0,0.00
10315,14342355,0,0,0,-1.134886,0.333141,9.689019,0,0,0,0,0,0,0.00
10317,14342394,0,0,0,-1.110822,0.314103,9.693663,0,0,0,0,0,0,0.00
10319,14342434,0,0,0,-1.096436,0.309382,9.693561,0,0,0,0,0,0,0.00
10321,14342474,0,0,0,-1.144382,0.299585,9.679554,0,0,0,0,0,0,0.00
10323,14342514,0,0,0,-1.139594,0.299607,9.679518,0,0,0,0,0,0,0.00
10326,14342553,0,0,0,-1.125208,0.294887,9.679416,0,0,0,0,0,0,0.00
10328,14342593,0,0,0,-1.153722,0.304328,9.713185,0,0,0,0,0,0,0.00
10330,14342633,0,0,0,-1.149102,0.309138,9.693960,0,0,0,0,0,0,0.00
10332,14342672,0,0,0,-1.129967,0.304440,9.689028,0,0,0,0,0,0,0.00
10334,14342712,0,0,0,-1.139396,0.328331,9.722630,0,0,0,0,0,0,0.00
10336,14342732,-1.140154,0.307969,9.702320,0,0,0,0.322573,-0.686180,-0.528476,2.149698,6.629933,158.242802,28.91
10339,14342791,0,0,0,-1.139607,0.342693,9.703426,0,0,0,0,0,0,0.00
10341,14342831,0,0,0,-1.125155,0.323610,9.703346,0,0,0,0,0,0,0.00
10342,14342851,0,0,0,-1.115470,0.299719,9.703311,0,0,0,0,0,0,0.00
10344,14342891,0,0,0,-1.149198,0.289989,9.670014,0,0,0,0,0,0,0.00
10346,14342930,0,0,0,-1.134768,0.299630,9.684277,0,0,0,0,0,0,0.00
10349,14342970,0,0,0,-1.134586,0.275694,9.693904,0,0,0,0,0,0,0.00
10351,14343010,0,0,0,-1.158415,0.299519,9.722819,0,0,0,0,0,0,0.00
10353,14343049,0,0,0,-1.148875,0.299563,9.717952,0,0,0,0,0,0,0.00
10357,14343129,0,0,0,-1.130113,0.328376,9.684196,0,0,0,0,0,0,0.00
10360,14343169,0,0,0,-1.130142,0.342738,9.688969,0,0,0,0,0,0,0.00
10362,14343208,0,0,0,-1.130083,0.337951,9.693770,0,0,0,0,0,0,0.00
10364,14343248,0,0,0,-1.115602,0.328443,9.703266,0,0,0,0,0,0,0.00
10366,14343288,0,0,0,-1.134820,0.294843,9.674693,0,0,0,0,0,0,0.00
10368,14343327,0,0,0,-1.125083,0.299674,9.698588,0,0,0,0,0,0,0.00
10371,14343367,0,0,0,-1.139478,0.266096,9.674774,0,0,0,0,0,0,0.00
10373,14343407,0,0,0,-1.153833,0.280391,9.684452,0,0,0,0,0,0,0.00
10374,14343427,0,0,0,-1.134630,0.285268,9.693890,0,0,0,0,0,0,0.00
10377,14343486,0,0,0,-1.120266,0.309271,9.708127,0,0,0,0,0,0,0.00
10378,14343506,0,0,0,-1.134570,0.304418,9.713040,0,0,0,0,0,0,0.00
10381,14343546,0,0,0,-1.144374,0.313948,9.689122,0,0,0,0,0,0,0.00
10383,14343585,0,0,0,-1.130032,0.342738,9.703354,0,0,0,0,0,0,0.00
10385,14343625,0,0,0,-1.134819,0.342716,9.703390,0,0,0,0,0,0,0.00
10387,14343665,0,0,0,-1.106194,0.333274,9.684006,0,0,0,0,0,0,0.00
10389,14343704,0,0,0,-1.139447,0.299607,9.698698,0,0,0,0,0,0,0.00
10391,14343732,-1.123547,0.317041,9.697491,0,0,0,0.323094,-0.688660,-0.529502,2.179821,6.629364,158.258631,28.91
10394,14343784,0,0,0,-1.139690,0.280457,9.655572,0,0,0,0,0,0,0.00
10396,14343823,0,0,0,-1.125099,0.270950,9.679453,0,0,0,0,0,0,0.00
10398,14343863,0,0,0,-1.134542,0.290055,9.708267,0,0,0,0,0,0,0.00
10400,14343903,0,0,0,-1.144161,0.299585,9.708324,0,0,0,0,0,0,0.00
10402,14343932,-1.141241,0.289654,9.703539,0,0,0,0.322560,-0.687195,-0.526985,2.177962,6.627710,158.261327,28.91
10405,14343982,0,0,0,-1.149160,0.337862,9.703506,0,0,0,0,0,0,0.00
10407,14344022,0,0,0,-1.134673,0.342716,9.722571,0,0,0,0,0,0,0.00
10409,14344062,0,0,0,-1.125302,0.347548,9.698514,0,0,0,0,0,0,0.00
10413,14344132,-1.134611,0.330650,9.704956,0,0,0,0.324092,-0.688650,-0.529994,2.189208,6.627287,158.265078,28.91
10415,14344161,0,0,0,-1.149183,0.294776,9.674802,0,0,0,0,0,0,0.00
10417,14344201,0,0,0,-1.163599,0.289922,9.665328,0,0,0,0,0,0,0.00
10419,14344240,0,0,0,-1.153871,0.280391,9.679657,0,0,0,0,0,0,0.00
10421,14344280,0,0,0,-1.134512,0.299630,9.717843,0,0,0,0,0,0,0.00
10426,14344359,0,0,0,-1.134644,0.304418,9.703449,0,0,0,0,0,0,0.00
10428,14344399,0,0,0,-1.139446,0.323544,9.713047,0,0,0,0,0,0,0.00
10430,14344439,0,0,0,-1.134629,0.333141,9.722586,0,0,0,0,0,0,0.00
10432,14344478,0,0,0,-1.134651,0.337929,9.722578,0,0,0,0,0,0,0.00
10437,14344558,0,0,0,-1.139594,0.299607,9.679518,0,0,0,0,0,0,0.00
10439,14344598,0,0,0,-1.158876,0.304306,9.665269,0,0,0,0,0,0,0.00
10441,14344637,0,0,0,-1.158599,0.275582,9.684495,0,0,0,0,0,0,0.00
10442,14344657,0,0,0,-1.134762,0.290055,9.679497,0,0,0,0,0,0,0.00
10444,14344697,0,0,0,-1.129798,0.299652,9.708216,0,0,0,0,0,0,0.00
10446,14344736,0,0,0,-1.125061,0.294887,9.698596,0,0,0,0,0,0,0.00
10449,14344776,0,0,0,-1.125149,0.314036,9.698566,0,0,0,0,0,0,0.00
10451,14344816,0,0,0,-1.134789,0.352291,9.712966,0,0,0,0,0,0,0.00
10453,14344856,0,0,0,-1.139520,0.347481,9.717805,0,0,0,0,0,0,0.00
10455,14344895,0,0,0,-1.153817,0.333052,9.717936,0,0,0,0,0,0,0.00
10457,14344935,0,0,0,-1.124966,0.314036,9.722543,0,0,0,0,0,0,0.00
10460,14344975,0,0,0,-1.139565,0.309182,9.689093,0,0,0,0,0,0,0.00
10462,14345014,0,0,0,-1.168430,0.299475,9.665350,0,0,0,0,0,0,0.00
10464,14345054,0,0,0,-1.144309,0.275649,9.674795,0,0,0,0,0,0,0.00
10466,14345094,0,0,0,-1.149110,0.294776,9.684393,0,0,0,0,0,0,0.00
10468,14345133,0,0,0,-1.115485,0.294931,9.698524,0,0,0,0,0,0,0.00
10471,14345173,0,0,0,-1.120252,0.290121,9.698567,0,0,0,0,0,0,0.00
10473,14345213,0,0,0,-1.134768,0.323566,9.698625,0,0,0,0,0,0,0.00
10475,14345253,0,0,0,-1.134886,0.333141,9.689019,0,0,0,0,0,0,0.00
10477,14345292,0,0,0,-1.134724,0.337929,9.712988,0,0,0,0,0,0,0.00
10479,14345332,0,0,0,-1.158568,0.333030,9.722767,0,0,0,0,0,0,0.00
10482,14345372,0,0,0,-1.158700,0.337817,9.708373,0,0,0,0,0,0,0.00
10484,14345411,0,0,0,-1.130047,0.314014,9.684218,0,0,0,0,0,0,0.00
10486,14345451,0,0,0,-1.158694,0.280369,9.674897,0,0,0,0,0,0,0.00
10488,14345491,0,0,0,-1.130011,0.290077,9.674664,0,0,0,0,0,0,0.00
10490,14345530,0,0,0,-1.110793,0.299741,9.688890,0,0,0,0,0,0,0.00
10493,14345570,0,0,0,-1.129981,0.299652,9.684240,0,0,0,0,0,0,0.00
10494,14345590,0,0,0,-1.125083,0.299674,9.698588,0,0,0,0,0,0,0.00
10496,14345630,0,0,0,-1.120332,0.299696,9.693757,0,0,0,0,0,0,0.00
10498,14345669,0,0,0,-1.134798,0.313993,9.689050,0,0,0,0,0,0,0.00
10500,14345709,0,0,0,-1.144278,0.333097,9.713068,0,0,0,0,0,0,0.00
10503,14345749,0,0,0,-1.125163,0.333185,9.708126,0,0,0,0,0,0,0.00
10505,14345788,0,0,0,-1.154022,0.337839,9.693952,0,0,0,0,0,0,0.00
10507,14345828,0,0,0,-1.158649,0.294731,9.689260,0,0,0,0,0,0,0.00
10509,14345868,0,0,0,-1.149241,0.299563,9.669999,0,0,0,0,0,0,0.00
10511,14345907,0,0,0,-1.144308,0.299585,9.689144,0,0,0,0,0,0,0.00
10513,14345932,-1.151096,0.299288,9.675348,0,0,0,0.324596,-0.689141,-0.530496,2.225712,6.624231,158.291408,28.91
10516,14345987,0,0,0,-1.115309,0.304506,9.727280,0,0,0,0,0,0,0.00
10518,14346027,0,0,0,-1.110668,0.304528,9.708062,0,0,0,0,0,0,0.00
10520,14346066,0,0,0,-1.129892,0.328376,9.712967,0,0,0,0,0,0,0.00
10522,14346106,0,0,0,-1.144197,0.323522,9.717878,0,0,0,0,0,0,0.00
10524,14346132,-1.131744,0.319662,9.716291,0,0,0,0.323587,-0.688159,-0.529492,2.224651,6.621603,158.295446,28.91
10527,14346185,0,0,0,-1.153978,0.328264,9.693967,0,0,0,0,0,0,0.00
10529,14346225,0,0,0,-1.148824,0.304351,9.727534,0,0,0,0,0,0,0.00
10531,14346265,0,0,0,-1.158789,0.309093,9.679647,0,0,0,0,0,0,0.00
10535,14346332,-1.149280,0.311064,9.688663,0,0,0,0.323094,-0.688660,-0.529502,2.233913,6.623427,158.297986,28.91
10538,14346384,0,0,0,-1.130164,0.323588,9.674612,0,0,0,0,0,0,0.00
10539,14346404,0,0,0,-1.110903,0.323677,9.688852,0,0,0,0,0,0,0.00
10541,14346443,0,0,0,-1.139454,0.309182,9.703478,0,0,0,0,0,0,0.00
10543,14346483,0,0,0,-1.120383,0.318845,9.698523,0,0,0,0,0,0,0.00
10548,14346562,0,0,0,-1.144249,0.318734,9.708295,0,0,0,0,0,0,0.00
10550,14346602,0,0,0,-1.163481,0.328220,9.703629,0,0,0,0,0,0,0.00
10552,14346642,0,0,0,-1.163452,0.313859,9.698857,0,0,0,0,0,0,0.00
10554,14346682,0,0,0,-1.163643,0.323433,9.679662,0,0,0,0,0,0,0.00
10559,14346761,0,0,0,-1.144235,0.299585,9.698734,0,0,0,0,0,0,0.00
10560,14346781,0,0,0,-1.125178,0.304461,9.688991,0,0,0,0,0,0,0.00
10562,14346820,0,0,0,-1.110785,0.314103,9.698458,0,0,0,0,0,0,0.00
10564,14346860,0,0,0,-1.115646,0.314081,9.688904,0,0,0,0,0,0,0.00
10566,14346900,0,0,0,-1.134805,0.323566,9.693830,0,0,0,0,0,0,0.00
10568,14346940,0,0,0,-1.153664,0.299541,9.717988,0,0,0,0,0,0,0.00
10571,14346979,0,0,0,-1.139491,0.309182,9.698683,0,0,0,0,0,0,0.00
10573,14347019,0,0,0,-1.158648,0.318667,9.703609,0,0,0,0,0,0,0.00
10575,14347059,0,0,0,-1.158465,0.318667,9.727585,0,0,0,0,0,0,0.00
10577,14347098,0,0,0,-1.158656,0.304306,9.694040,0,0,0,0,0,0,0.00
10579,14347138,0,0,0,-1.149271,0.313926,9.674772,0,0,0,0,0,0,0.00
10582,14347178,0,0,0,-1.125310,0.333185,9.688946,0,0,0,0,0,0,0.00
10584,14347217,0,0,0,-1.101202,0.304573,9.693604,0,0,0,0,0,0,0.00
10586,14347257,0,0,0,-1.120449,0.309271,9.684152,0,0,0,0,0,0,0.00
10588,14347297,0,0,0,-1.125244,0.318823,9.688969,0,0,0,0,0,0,0.00
10590,14347336,0,0,0,-1.125193,0.323610,9.698551,0,0,0,0,0,0,0.00
10593,14347376,0,0,0,-1.139476,0.313970,9.703471,0,0,0,0,0,0,0.00
10595,14347416,0,0,0,-1.153803,0.313903,9.708375,0,0,0,0,0,0,0.00
10596,14347436,0,0,0,-1.163504,0.309072,9.689274,0,0,0,0,0,0,0.00
10599,14347495,0,0,0,-1.173130,0.328176,9.694113,0,0,0,0,0,0,0.00
10600,14347515,0,0,0,-1.163496,0.323433,9.698842,0,0,0,0,0,0,0.00
10603,14347555,0,0,0,-1.130244,0.333163,9.669802,0,0,0,0,0,0,0.00
10605,14347594,0,0,0,-1.139513,0.313970,9.698676,0,0,0,0,0,0,0.00
10607,14347634,0,0,0,-1.120420,0.318845,9.693727,0,0,0,0,0,0,0.00
10609,14347674,0,0,0,-1.101151,0.309361,9.703187,0,0,0,0,0,0,0.00
10611,14347714,0,0,0,-1.120252,0.290121,9.698567,0,0,0,0,0,0,0.00
10614,14347753,0,0,0,-1.134542,0.290055,9.708267,0,0,0,0,0,0,0.00
10616,14347793,0,0,0,-1.153854,0.309115,9.698792,0,0,0,0,0,0,0.00
10618,14347833,0,0,0,-1.163335,0.304284,9.708462,0,0,0,0,0,0,0.00
10620,14347872,0,0,0,-1.149044,0.304351,9.698763,0,0,0,0,0,0,0.00
10622,14347912,0,0,0,-1.172991,0.313814,9.703726,0,0,0,0,0,0,0.00
10624,14347932,-1.157880,0.307170,9.700172,0,0,0,0.324607,-0.691135,-0.530519,2.255129,6.615434,158.323783,28.91
10627,14347991,0,0,0,-1.158810,0.337817,9.693988,0,0,0,0,0,0,0.00
10629,14348031,0,0,0,-1.115712,0.328443,9.688881,0,0,0,0,0,0,0.00
10631,14348071,0,0,0,-1.106011,0.309338,9.693633,0,0,0,0,0,0,0.00
10633,14348111,0,0,0,-1.125163,0.309249,9.693778,0,0,0,0,0,0,0.00
10634,14348130,0,0,0,-1.134665,0.309205,9.703442,0,0,0,0,0,0,0.00
10637,14348170,0,0,0,-1.129908,0.299652,9.693830,0,0,0,0,0,0,0.00
10639,14348210,0,0,0,-1.153737,0.299541,9.708397,0,0,0,0,0,0,0.00
10641,14348249,0,0,0,-1.144132,0.309160,9.717900,0,0,0,0,0,0,0.00
10645,14348329,0,0,0,-1.163452,0.313859,9.698857,0,0,0,0,0,0,0.00
10648,14348369,0,0,0,-1.139549,0.337906,9.708228,0,0,0,0,0,0,0.00
10650,14348408,0,0,0,-1.139674,0.333118,9.689055,0,0,0,0,0,0,0.00
10652,14348448,0,0,0,-1.110947,0.333252,9.688837,0,0,0,0,0,0,0.00
10654,14348488,0,0,0,-1.125229,0.323610,9.693756,0,0,0,0,0,0,0.00
10656,14348527,0,0,0,-1.115653,0.323655,9.693684,0,0,0,0,0,0,0.00
10659,14348567,0,0,0,-1.129843,0.285290,9.693853,0,0,0,0,0,0,0.00
10661,14348607,0,0,0,-1.129864,0.290077,9.693846,0,0,0,0,0,0,0.00
10663,14348646,0,0,0,-1.168144,0.309050,9.708491,0,0,0,0,0,0,0.00
10665,14348686,0,0,0,-1.158723,0.294731,9.679670,0,0,0,0,0,0,0.00
10667,14348726,0,0,0,-1.154030,0.323477,9.684384,0,0,0,0,0,0,0.00
10670,14348765,0,0,0,-1.153825,0.318689,9.708367,0,0,0,0,0,0,0.00
10671,14348785,0,0,0,-1.149124,0.313926,9.693954,0,0,0,0,0,0,0.00
10673,14348825,0,0,0,-1.120463,0.328420,9.693712,0,0,0,0,0,0,0.00
10675,14348865,0,0,0,-1.130186,0.328376,9.674604,0,0,0,0,0,0,0.00
10677,14348904,0,0,0,-1.134805,0.323566,9.693830,0,0,0,0,0,0,0.00
10680,14348944,0,0,0,-1.115639,0.304506,9.684123,0,0,0,0,0,0,0.00
10682,14348984,0,0,0,-1.134820,0.318779,9.689042,0,0,0,0,0,0,0.00
10684,14349024,0,0,0,-1.120231,0.285334,9.698575,0,0,0,0,0,0,0.00
10686,14349063,0,0,0,-1.153767,0.289966,9.698822,0,0,0,0,0,0,0.00
10688,14349103,0,0,0,-1.163313,0.299497,9.708469,0,0,0,0,0,0,0.00
10690,14349132,-1.160450,0.290541,9.694576,0,0,0,0.324581,-0.689657,-0.528999,2.272150,6.609594,158.342411,28.91
10693,14349182,0,0,0,-1.149198,0.337862,9.698710,0,0,0,0,0,0,0.00
10695,14349222,0,0,0,-1.144300,0.337884,9.713060,0,0,0,0,0,0,0.00
10697,14349262,0,0,0,-1.120493,0.318845,9.684137,0,0,0,0,0,0,0.00
10699,14349301,0,0,0,-1.111152,0.338039,9.664853,0,0,0,0,0,0,0.00
10701,14349332,-1.123192,0.324886,9.689701,0,0,0,0.322615,-0.690650,-0.530029,2.279638,6.608901,158.345918,28.91
10704,14349381,0,0,0,-1.101291,0.299786,9.679227,0,0,0,0,0,0,0.00
10706,14349420,0,0,0,-1.129849,0.294865,9.698633,0,0,0,0,0,0,0.00
10708,14349460,0,0,0,-1.148993,0.285201,9.693998,0,0,0,0,0,0,0.00
10712,14349540,0,0,0,-1.168254,0.309050,9.694106,0,0,0,0,0,0,0.00
10715,14349579,0,0,0,-1.144300,0.337884,9.713060,0,0,0,0,0,0,0.00
10716,14349599,0,0,0,-1.149176,0.333075,9.698718,0,0,0,0,0,0,0.00
10718,14349639,0,0,0,-1.134739,0.333141,9.708200,0,0,0,0,0,0,0.00
10720,14349678,0,0,0,-1.153913,0.313903,9.693990,0,0,0,0,0,0,0.00
10725,14349758,0,0,0,-1.139696,0.313970,9.674700,0,0,0,0,0,0,0.00
10727,14349798,0,0,0,-1.134673,0.318779,9.708222,0,0,0,0,0,0,0.00
10729,14349837,0,0,0,-1.105872,0.294975,9.703246,0,0,0,0,0,0,0.00
10731,14349877,0,0,0,-1.148913,0.275627,9.698808,0,0,0,0,0,0,0.00
10733,14349917,0,0,0,-1.158649,0.294731,9.689260,0,0,0,0,0,0,0.00
10734,14349936,0,0,0,-1.149022,0.299563,9.698771,0,0,0,0,0,0,0.00
10738,14349996,0,0,0,-1.153839,0.337839,9.717928,0,0,0,0,0,0,0.00
10739,14350016,0,0,0,-1.144293,0.328309,9.708280,0,0,0,0,0,0,0.00
10741,14350056,0,0,0,-1.149160,0.337862,9.703506,0,0,0,0,0,0,0.00
10743,14350095,0,0,0,-1.129914,0.333163,9.712959,0,0,0,0,0,0,0.00
10745,14350135,0,0,0,-1.139637,0.333118,9.693851,0,0,0,0,0,0,0.00
10748,14350175,0,0,0,-1.144623,0.328309,9.665123,0,0,0,0,0,0,0.00
10750,14350214,0,0,0,-1.120302,0.309271,9.703332,0,0,0,0,0,0,0.00
10752,14350254,0,0,0,-1.139227,0.299607,9.727469,0,0,0,0,0,0,0.00
10754,14350294,0,0,0,-1.153708,0.285178,9.703625,0,0,0,0,0,0,0.00
10756,14350333,0,0,0,-1.153884,0.299541,9.689217,0,0,0,0,0,0,0.00
10759,14350373,0,0,0,-1.144271,0.299585,9.693939,0,0,0,0,0,0,0.00
10761,14350413,0,0,0,-1.120390,0.328420,9.703302,0,0,0,0,0,0,0.00
10763,14350453,0,0,0,-1.134695,0.323566,9.708215,0,0,0,0,0,0,0.00
10765,14350492,0,0,0,-1.144506,0.342671,9.689077,0,0,0,0,0,0,0.00
10767,14350532,0,0,0,-1.125251,0.328398,9.693748,0,0,0,0,0,0,0.00
10770,14350572,0,0,0,-1.134952,0.323566,9.674648,0,0,0,0,0,0,0.00
10772,14350611,0,0,0,-1.120324,0.314058,9.703325,0,0,0,0,0,0,0.00
10774,14350651,0,0,0,-1.115543,0.299719,9.693721,0,0,0,0,0,0,0.00
10776,14350691,0,0,0,-1.158443,0.289944,9.713244,0,0,0,0,0,0,0.00
10777,14350711,0,0,0,-1.134624,0.275694,9.689109,0,0,0,0,0,0,0.00
10780,14350750,0,0,0,-1.139558,0.275671,9.669964,0,0,0,0,0,0,0.00
10782,14350790,0,0,0,-1.158730,0.304306,9.684450,0,0,0,0,0,0,0.00
10784,14350830,0,0,0,-1.134658,0.323566,9.713011,0,0,0,0,0,0,0.00
10786,14350869,0,0,0,-1.110609,0.323677,9.727214,0,0,0,0,0,0,0.00
10788,14350909,0,0,0,-1.149138,0.333075,9.703513,0,0,0,0,0,0,0.00
10791,14350949,0,0,0,-1.134820,0.318779,9.689042,0,0,0,0,0,0,0.00
10793,14350988,0,0,0,-1.139835,0.328331,9.665087,0,0,0,0,0,0,0.00
10795,14351028,0,0,0,-1.139527,0.309182,9.693888,0,0,0,0,0,0,0.00
10797,14351068,0,0,0,-1.129973,0.314014,9.693809,0,0,0,0,0,0,0.00
10799,14351107,0,0,0,-1.139440,0.290032,9.693918,0,0,0,0,0,0,0.00
10801,14351132,-1.137480,0.306672,9.699772,0,0,0,0.324097,-0.689647,-0.530005,2.305344,6.599904,158.374481,28.91
10804,14351187,0,0,0,-1.149009,0.280414,9.689211,0,0,0,0,0,0,0.00
10806,14351227,0,0,0,-1.149095,0.323500,9.703528,0,0,0,0,0,0,0.00
10808,14351266,0,0,0,-1.125090,0.333185,9.717717,0,0,0,0,0,0,0.00
10810,14351306,0,0,0,-1.125141,0.328398,9.708134,0,0,0,0,0,0,0.00
10812,14351332,-1.131689,0.332669,9.709975,0,0,0,0.325609,-0.693127,-0.530532,2.306098,6.598418,158.378856,28.91
10815,14351385,0,0,0,-1.139645,0.318756,9.684283,0,0,0,0,0,0,0.00
10817,14351425,0,0,0,-1.149176,0.309138,9.684370,0,0,0,0,0,0,0.00
10819,14351465,0,0,0,-1.125171,0.318823,9.698559,0,0,0,0,0,0,0.00
10823,14351532,-1.133756,0.319243,9.690830,0,0,0,0.324136,-0.691113,-0.532526,2.310616,6.598369,158.381425,28.91
10826,14351584,0,0,0,-1.144353,0.285223,9.674781,0,0,0,0,0,0,0.00
10827,14351604,0,0,0,-1.134688,0.290055,9.689087,0,0,0,0,0,0,0.00
10829,14351643,0,0,0,-1.153934,0.318689,9.693982,0,0,0,0,0,0,0.00
10831,14351683,0,0,0,-1.129914,0.333163,9.712959,0,0,0,0,0,0,0.00
10836,14351762,0,0,0,-1.144403,0.328309,9.693894,0,0,0,0,0,0,0.00
10838,14351802,0,0,0,-1.158773,0.313881,9.684436,0,0,0,0,0,0,0.00
10840,14351842,0,0,0,-1.134952,0.323566,9.674648,0,0,0,0,0,0,0.00
10842,14351882,0,0,0,-1.148999,0.318712,9.713127,0,0,0,0,0,0,0.00
10847,14351961,0,0,0,-1.149154,0.304351,9.684378,0,0,0,0,0,0,0.00
10848,14351981,0,0,0,-1.144338,0.290010,9.679569,0,0,0,0,0,0,0.00
10850,14352020,0,0,0,-1.139396,0.304395,9.708281,0,0,0,0,0,0,0.00
10852,14352060,0,0,0,-1.139615,0.328331,9.693858,0,0,0,0,0,0,0.00
10854,14352100,0,0,0,-1.129856,0.328376,9.717762,0,0,0,0,0,0,0.00
10856,14352140,0,0,0,-1.134651,0.313993,9.708230,0,0,0,0,0,0,0.00
10859,14352179,0,0,0,-1.139483,0.323544,9.708251,0,0,0,0,0,0,0.00
10861,14352219,0,0,0,-1.129856,0.304440,9.703413,0,0,0,0,0,0,0.00
10863,14352259,0,0,0,-1.149234,0.337862,9.693915,0,0,0,0,0,0,0.00
10865,14352298,0,0,0,-1.149051,0.313926,9.703544,0,0,0,0,0,0,0.00
10867,14352338,0,0,0,-1.125127,0.309249,9.698573,0,0,0,0,0,0,0.00
10870,14352378,0,0,0,-1.134739,0.309205,9.693851,0,0,0,0,0,0,0.00
10872,14352417,0,0,0,-1.144308,0.299585,9.689144,0,0,0,0,0,0,0.00
10874,14352457,0,0,0,-1.144338,0.290010,9.679569,0,0,0,0,0,0,0.00
10876,14352497,0,0,0,-1.134702,0.333141,9.712996,0,0,0,0,0,0,0.00
10878,14352536,0,0,0,-1.129864,0.337951,9.722542,0,0,0,0,0,0,0.00
10881,14352576,0,0,0,-1.125141,0.328398,9.708134,0,0,0,0,0,0,0.00
10883,14352616,0,0,0,-1.149095,0.323500,9.703528,0,0,0,0,0,0,0.00
10884,14352636,0,0,0,-1.139586,0.313970,9.689086,0,0,0,0,0,0,0.00
10887,14352695,0,0,0,-1.168262,0.318624,9.698887,0,0,0,0,0,0,0.00
10888,14352715,0,0,0,-1.149095,0.323500,9.703528,0,0,0,0,0,0,0.00
10891,14352755,0,0,0,-1.115551,0.309294,9.698501,0,0,0,0,0,0,0.00
10893,14352795,0,0,0,-1.144293,0.304373,9.693932,0,0,0,0,0,0,0.00
10895,14352834,0,0,0,-1.149271,0.313926,9.674772,0,0,0,0,0,0,0.00
10897,14352874,0,0,0,-1.139535,0.294820,9.684320,0,0,0,0,0,0,0.00
10899,14352914,0,0,0,-1.139366,0.313970,9.717857,0,0,0,0,0,0,0.00
10902,14352953,0,0,0,-1.134739,0.333141,9.708200,0,0,0,0,0,0,0.00
10904,14352993,0,0,0,-1.129842,0.333163,9.722549,0,0,0,0,0,0,0.00
10906,14353033,0,0,0,-1.139476,0.313970,9.703471,0,0,0,0,0,0,0.00
10908,14353072,0,0,0,-1.168437,0.332986,9.684479,0,0,0,0,0,0,0.00
10910,14353112,0,0,0,-1.163518,0.328220,9.698834,0,0,0,0,0,0,0.00
10912,14353132,-1.154591,0.323993,9.692552,0,0,0,0.325607,-0.692628,-0.530527,2.331826,6.588774,158.408147,28.91
10915,14353191,0,0,0,-1.120449,0.309271,9.684152,0,0,0,0,0,0,0.00
10917,14353231,0,0,0,-1.139456,0.285245,9.689131,0,0,0,0,0,0,0.00
10919,14353271,0,0,0,-1.125361,0.304461,9.665014,0,0,0,0,0,0,0.00
10920,14353291,0,0,0,-1.120413,0.309271,9.688947,0,0,0,0,0,0,0.00
10922,14353330,0,0,0,-1.125229,0.323610,9.693756,0,0,0,0,0,0,0.00
10925,14353370,0,0,0,-1.115587,0.333230,9.708054,0,0,0,0,0,0,0.00
10927,14353410,0,0,0,-1.139476,0.337906,9.717819,0,0,0,0,0,0,0.00
10929,14353449,0,0,0,-1.158722,0.318667,9.694018,0,0,0,0,0,0,0.00
10933,14353529,0,0,0,-1.144424,0.333097,9.693887,0,0,0,0,0,0,0.00
10936,14353569,0,0,0,-1.149095,0.323500,9.703528,0,0,0,0,0,0,0.00
10938,14353608,0,0,0,-1.120361,0.314058,9.698530,0,0,0,0,0,0,0.00
10940,14353648,0,0,0,-1.125156,0.299674,9.688998,0,0,0,0,0,0,0.00
10942,14353688,0,0,0,-1.125252,0.304461,9.679400,0,0,0,0,0,0,0.00
10944,14353727,0,0,0,-1.139549,0.313970,9.693881,0,0,0,0,0,0,0.00
10947,14353767,0,0,0,-1.129915,0.309227,9.698610,0,0,0,0,0,0,0.00
10949,14353807,0,0,0,-1.144014,0.299585,9.727506,0,0,0,0,0,0,0.00
10950,14353827,0,0,0,-1.134703,0.309205,9.698647,0,0,0,0,0,0,0.00
10953,14353886,0,0,0,-1.153847,0.323477,9.708360,0,0,0,0,0,0,0.00
10954,14353906,0,0,0,-1.158693,0.304306,9.689245,0,0,0,0,0,0,0.00
10957,14353946,0,0,0,-1.163576,0.333008,9.694032,0,0,0,0,0,0,0.00
10959,14353985,0,0,0,-1.139667,0.347481,9.698624,0,0,0,0,0,0,0.00
10961,14354025,0,0,0,-1.125340,0.323610,9.679371,0,0,0,0,0,0,0.00
10963,14354065,0,0,0,-1.120376,0.309271,9.693742,0,0,0,0,0,0,0.00
10965,14354104,0,0,0,-1.135025,0.323566,9.665058,0,0,0,0,0,0,0.00
10967,14354132,-1.125404,0.312562,9.674501,0,0,0,0.325076,-0.691662,-0.528016,2.348150,6.583121,158.423926,28.91
10970,14354184,0,0,0,-1.115316,0.314081,9.732060,0,0,0,0,0,0,0.00
10972,14354224,0,0,0,-1.129812,0.318801,9.717777,0,0,0,0,0,0,0.00
10974,14354263,0,0,0,-1.144052,0.299585,9.722711,0,0,0,0,0,0,0.00
10976,14354303,0,0,0,-1.153795,0.304328,9.703594,0,0,0,0,0,0,0.00
10978,14354332,-1.148842,0.304427,9.710968,0,0,0,0.325096,-0.692143,-0.529524,2.344310,6.580786,158.428154,28.91
10981,14354382,0,0,0,-1.153986,0.337839,9.698747,0,0,0,0,0,0,0.00
10983,14354422,0,0,0,-1.130047,0.337951,9.698565,0,0,0,0,0,0,0.00
10985,14354462,0,0,0,-1.129930,0.328376,9.708171,0,0,0,0,0,0,0.00
10989,14354532,-1.120578,0.318215,9.690804,0,0,0,0.323592,-0.690160,-0.529014,2.354545,6.580746,158.430924,28.91
10992,14354581,0,0,0,-1.134812,0.309205,9.684261,0,0,0,0,0,0,0.00
