// General information: 
//  MT Manager version: 2025.0.0 
//  XDA version: 2025.0.0 build 241121001 rev 1732180523 built on 2024-11-21
// Device information: 
//  DeviceId: 0388A23E
//  ProductCode: MTi-3-8A7G6
//  Firmware Version: 1.20.1
//  Hardware Version: 5.0.0
// Device settings: 
//  Filter Profile: general(50.10)
//  Option Flags: Orientation Smoother Disabled, Position/Velocity Smoother Disabled, Continuous Zero Rotation Update Disabled, AHS Disabled, ICC Disabled
// Coordinate system: ENU
PacketCounter,SampleTimeFine,Acc_X,Acc_Y,Acc_Z,AccHR_X,AccHR_Y,AccHR_Z,Mag_X,Mag_Y,Mag_Z,Roll,Pitch,Yaw,Temperature
29451,3171089,0,0,0,0.249836,0.258465,9.740667,0,0,0,0,0,0,0.00
29453,3171129,0,0,0,0.269149,0.239405,9.750143,0,0,0,0,0,0,0.00
29455,3171169,0,0,0,0.254872,0.244124,9.764629,0,0,0,0,0,0,0.00
29457,3171208,0,0,0,0.264353,0.248957,9.754959,0,0,0,0,0,0,0.00
29460,3171248,0,0,0,0.254652,0.244124,9.735859,0,0,0,0,0,0,0.00
29462,3171288,0,0,0,0.259602,0.248935,9.759790,0,0,0,0,0,0,0.00
29464,3171327,0,0,0,0.269046,0.229830,9.730977,0,0,0,0,0,0,0.00
29466,3171367,0,0,0,0.264426,0.248957,9.764549,0,0,0,0,0,0,0.00
29468,3171407,0,0,0,0.269199,0.244191,9.759726,0,0,0,0,0,0,0.00
29470,3171446,0,0,0,0.273863,0.239427,9.740517,0,0,0,0,0,0,0.00
29472,3171486,0,0,0,0.250180,0.263251,9.788611,0,0,0,0,0,0,0.00
29474,3171526,0,0,0,0.259697,0.244147,9.769388,0,0,0,0,0,0,0.00
29476,3171566,0,0,0,0.264265,0.244169,9.740582,0,0,0,0,0,0,0.00
29478,3171605,0,0,0,0.259697,0.244147,9.769388,0,0,0,0,0,0,0.00
29481,3171645,0,0,0,0.264389,0.248957,9.759754,0,0,0,0,0,0,0.00
29482,3171665,0,0,0,0.264317,0.248957,9.750164,0,0,0,0,0,0,0.00
29484,3171704,0,0,0,0.274156,0.239427,9.778878,0,0,0,0,0,0,0.00
29486,3171744,0,0,0,0.259763,0.229786,9.769410,0,0,0,0,0,0,0.00
29488,3171784,0,0,0,0.269053,0.244191,9.740545,0,0,0,0,0,0,0.00
29490,3171824,0,0,0,0.273980,0.253788,9.764469,0,0,0,0,0,0,0.00
29492,3171863,0,0,0,0.264397,0.263318,9.769321,0,0,0,0,0,0,0.00
29494,3171903,0,0,0,0.283270,0.268194,9.735603,0,0,0,0,0,0,0.00
29496,3171943,0,0,0,0.250011,0.244102,9.755075,0,0,0,0,0,0,0.00
29498,3171982,0,0,0,0.254638,0.239338,9.731071,0,0,0,0,0,0,0.00
29501,3172022,0,0,0,0.259514,0.244147,9.745413,0,0,0,0,0,0,0.00
29503,3172062,0,0,0,0.254982,0.220189,9.764667,0,0,0,0,0,0,0.00
29505,3172101,0,0,0,0.264484,0.244169,9.769352,0,0,0,0,0,0,0.00
29507,3172141,0,0,0,0.245180,0.229719,9.740748,0,0,0,0,0,0,0.00
29509,3172181,0,0,0,0.250202,0.234529,9.774270,0,0,0,0,0,0,0.00
29511,3172221,0,0,0,0.264331,0.253744,9.754951,0,0,0,0,0,0,0.00
29513,3172260,0,0,0,0.293176,0.244303,9.764338,0,0,0,0,0,0,0.00
29515,3172300,0,0,0,0.278702,0.268172,9.764410,0,0,0,0,0,0,0.00
29517,3172340,0,0,0,0.259653,0.253722,9.769373,0,0,0,0,0,0,0.00
29519,3172379,0,0,0,0.240340,0.248845,9.745551,0,0,0,0,0,0,0.00
29521,3172407,0.261777,0.248966,9.759268,0,0,0,-0.126801,0.679435,-0.585031,3.125994,-2.601431,-11.105969,28.52
29524,3172459,0,0,0,0.254938,0.229763,9.764651,0,0,0,0,0,0,0.00
29526,3172498,0,0,0,0.264528,0.234595,9.769366,0,0,0,0,0,0,0.00
29528,3172538,0,0,0,0.254483,0.248912,9.716671,0,0,0,0,0,0,0.00
29529,3172558,0,0,0,0.254799,0.244124,9.755039,0,0,0,0,0,0,0.00
29531,3172598,0,0,0,0.269346,0.244191,9.778907,0,0,0,0,0,0,0.00
29533,3172637,0,0,0,0.316946,0.249201,9.744969,0,0,0,0,0,0,0.00
29535,3172677,0,0,0,0.283600,0.244258,9.764412,0,0,0,0,0,0,0.00
29537,3172717,0,0,0,0.273921,0.234639,9.745318,0,0,0,0,0,0,0.00
29541,3172796,0,0,0,0.245524,0.234507,9.788692,0,0,0,0,0,0,0.00
29544,3172836,0,0,0,0.254916,0.234550,9.764644,0,0,0,0,0,0,0.00
29546,3172875,0,0,0,0.250180,0.239316,9.774263,0,0,0,0,0,0,0.00
29548,3172915,0,0,0,0.230933,0.244014,9.764812,0,0,0,0,0,0,0.00
29550,3172955,0,0,0,0.259448,0.234573,9.731042,0,0,0,0,0,0,0.00
29552,3172995,0,0,0,0.269258,0.215468,9.750180,0,0,0,0,0,0,0.00
29554,3173034,0,0,0,0.283739,0.229897,9.774024,0,0,0,0,0,0,0.00
29556,3173074,0,0,0,0.288065,0.258642,9.730786,0,0,0,0,0,0,0.00
29558,3173114,0,0,0,0.274046,0.263362,9.778840,0,0,0,0,0,0,0.00
29560,3173153,0,0,0,0.273855,0.249001,9.745296,0,0,0,0,0,0,0.00
29562,3173193,0,0,0,0.259551,0.244147,9.750208,0,0,0,0,0,0,0.00
29563,3173213,0,0,0,0.255077,0.239338,9.788613,0,0,0,0,0,0,0.00
29566,3173253,0,0,0,0.249960,0.239316,9.745493,0,0,0,0,0,0,0.00
29568,3173292,0,0,0,0.235802,0.234462,9.769585,0,0,0,0,0,0,0.00
29570,3173332,0,0,0,0.230896,0.244014,9.760016,0,0,0,0,0,0,0.00
29572,3173372,0,0,0,0.259792,0.239361,9.778987,0,0,0,0,0,0,0.00
29574,3173411,0,0,0,0.264148,0.277679,9.745324,0,0,0,0,0,0,0.00
29576,3173451,0,0,0,0.264375,0.244169,9.754967,0,0,0,0,0,0,0.00
29578,3173491,0,0,0,0.259353,0.263296,9.735792,0,0,0,0,0,0,0.00
29580,3173530,0,0,0,0.288417,0.253855,9.773950,0,0,0,0,0,0,0.00
29582,3173570,0,0,0,0.273936,0.263362,9.764454,0,0,0,0,0,0,0.00
29584,3173610,0,0,0,0.273827,0.263362,9.750069,0,0,0,0,0,0,0.00
29587,3173650,0,0,0,0.254594,0.248912,9.731056,0,0,0,0,0,0,0.00
29589,3173689,0,0,0,0.245254,0.253655,9.764687,0,0,0,0,0,0,0.00
29591,3173729,0,0,0,0.264404,0.229808,9.750194,0,0,0,0,0,0,0.00
29593,3173769,0,0,0,0.250048,0.244102,9.759871,0,0,0,0,0,0,0.00
29595,3173808,0,0,0,0.259770,0.244147,9.778979,0,0,0,0,0,0,0.00
29597,3173848,0,0,0,0.269127,0.244191,9.750135,0,0,0,0,0,0,0.00
29599,3173888,0,0,0,0.264397,0.263318,9.769321,0,0,0,0,0,0,0.00
29601,3173927,0,0,0,0.298140,0.253900,9.793058,0,0,0,0,0,0,0.00
29603,3173967,0,0,0,0.288417,0.253855,9.773950,0,0,0,0,0,0,0.00
29605,3174007,0,0,0,0.283255,0.239471,9.716469,0,0,0,0,0,0,0.00
29608,3174046,0,0,0,0.264514,0.253744,9.778928,0,0,0,0,0,0,0.00
29610,3174086,0,0,0,0.249887,0.239316,9.735903,0,0,0,0,0,0,0.00
29611,3174106,0,0,0,0.259418,0.248935,9.735815,0,0,0,0,0,0,0.00
29613,3174146,0,0,0,0.245297,0.244081,9.764702,0,0,0,0,0,0,0.00
29615,3174185,0,0,0,0.240545,0.244058,9.769534,0,0,0,0,0,0,0.00
29617,3174225,0,0,0,0.244762,0.272804,9.711911,0,0,0,0,0,0,0.00
29619,3174265,0,0,0,0.264529,0.258532,9.783715,0,0,0,0,0,0,0.00
29621,3174304,0,0,0,0.273775,0.258575,9.740486,0,0,0,0,0,0,0.00
29623,3174344,0,0,0,0.288424,0.244280,9.769170,0,0,0,0,0,0,0.00
29625,3174384,0,0,0,0.274171,0.244213,9.783666,0,0,0,0,0,0,0.00
29628,3174424,0,0,0,0.278621,0.253811,9.745253,0,0,0,0,0,0,0.00
29630,3174463,0,0,0,0.283600,0.244258,9.764412,0,0,0,0,0,0,0.00
29632,3174503,0,0,0,0.250305,0.244102,9.793437,0,0,0,0,0,0,0.00
29634,3174543,0,0,0,0.249762,0.234529,9.716729,0,0,0,0,0,0,0.00
29636,3174582,0,0,0,0.269412,0.229830,9.778929,0,0,0,0,0,0,0.00
29638,3174622,0,0,0,0.245297,0.244081,9.764702,0,0,0,0,0,0,0.00
29640,3174662,0,0,0,0.259265,0.258510,9.721415,0,0,0,0,0,0,0.00
29642,3174701,0,0,0,0.255063,0.234550,9.783825,0,0,0,0,0,0,0.00
29644,3174741,0,0,0,0.288439,0.249067,9.773957,0,0,0,0,0,0,0.00
29646,3174781,0,0,0,0.316879,0.249212,9.735367,0,0,0,0,0,0,0.00
29648,3174807,0.285572,0.243450,9.763833,0,0,0,-0.128273,0.677939,-0.585562,3.130217,-2.602904,-11.106020,28.50
29651,3174860,0,0,0,0.278694,0.239461,9.745263,0,0,0,0,0,0,0.00
29653,3174900,0,0,0,0.259579,0.239372,9.750203,0,0,0,0,0,0,0.00
29655,3174940,0,0,0,0.250032,0.248901,9.759851,0,0,0,0,0,0,0.00
29656,3174959,0,0,0,0.250128,0.244115,9.769448,0,0,0,0,0,0,0.00
29658,3174999,0,0,0,0.225932,0.244004,9.736065,0,0,0,0,0,0,0.00
29660,3175039,0,0,0,0.240574,0.239283,9.769529,0,0,0,0,0,0,0.00
29662,3175079,0,0,0,0.254469,0.253711,9.716650,0,0,0,0,0,0,0.00
29664,3175118,0,0,0,0.259594,0.244160,9.754991,0,0,0,0,0,0,0.00
29668,3175198,0,0,0,0.274023,0.253799,9.769252,0,0,0,0,0,0,0.00
29671,3175237,0,0,0,0.293175,0.229954,9.754758,0,0,0,0,0,0,0.00
29673,3175277,0,0,0,0.288637,0.239505,9.793140,0,0,0,0,0,0,0.00
29675,3175317,0,0,0,0.259660,0.229798,9.755013,0,0,0,0,0,0,0.00
29677,3175356,0,0,0,0.278958,0.229887,9.774048,0,0,0,0,0,0,0.00
29679,3175396,0,0,0,0.250070,0.248901,9.764646,0,0,0,0,0,0,0.00
29681,3175436,0,0,0,0.254916,0.244137,9.769412,0,0,0,0,0,0,0.00
29683,3175475,0,0,0,0.240333,0.244070,9.740751,0,0,0,0,0,0,0.00
29685,3175515,0,0,0,0.254990,0.244137,9.779002,0,0,0,0,0,0,0.00
29687,3175555,0,0,0,0.259462,0.272882,9.754946,0,0,0,0,0,0,0.00
29689,3175595,0,0,0,0.274140,0.244226,9.778857,0,0,0,0,0,0,0.00
29690,3175614,0,0,0,0.288439,0.258654,9.778725,0,0,0,0,0,0,0.00
29694,3175674,0,0,0,0.283650,0.234695,9.764413,0,0,0,0,0,0,0.00
29695,3175694,0,0,0,0.274221,0.234651,9.783667,0,0,0,0,0,0,0.00
29697,3175733,0,0,0,0.273920,0.244226,9.750087,0,0,0,0,0,0,0.00
29699,3175773,0,0,0,0.255063,0.244137,9.788592,0,0,0,0,0,0,0.00
29701,3175813,0,0,0,0.254623,0.244137,9.731051,0,0,0,0,0,0,0.00
29703,3175853,0,0,0,0.245465,0.248879,9.788657,0,0,0,0,0,0,0.00
29705,3175892,0,0,0,0.240295,0.244070,9.735956,0,0,0,0,0,0,0.00
29707,3175932,0,0,0,0.249915,0.258476,9.750245,0,0,0,0,0,0,0.00
29709,3175972,0,0,0,0.254675,0.248923,9.740634,0,0,0,0,0,0,0.00
29711,3176011,0,0,0,0.274023,0.253799,9.769252,0,0,0,0,0,0,0.00
29714,3176051,0,0,0,0.278614,0.249035,9.740453,0,0,0,0,0,0,0.00
29716,3176091,0,0,0,0.278914,0.239461,9.774034,0,0,0,0,0,0,0.00
29717,3176111,0,0,0,0.278636,0.244248,9.740460,0,0,0,0,0,0,0.00
29720,3176170,0,0,0,0.269712,0.229842,9.817277,0,0,0,0,0,0,0.00
29721,3176190,0,0,0,0.250340,0.229753,9.788651,0,0,0,0,0,0,0.00
29723,3176230,0,0,0,0.269243,0.244204,9.764508,0,0,0,0,0,0,0.00
29725,3176269,0,0,0,0.240522,0.234495,9.759946,0,0,0,0,0,0,0.00
29727,3176309,0,0,0,0.245187,0.253667,9.755084,0,0,0,0,0,0,0.00
29729,3176349,0,0,0,0.249871,0.268050,9.750230,0,0,0,0,0,0,0.00
29731,3176388,0,0,0,0.250165,0.244115,9.774243,0,0,0,0,0,0,0.00
29734,3176428,0,0,0,0.274096,0.253799,9.778842,0,0,0,0,0,0,0.00
29736,3176468,0,0,0,0.278790,0.258610,9.769208,0,0,0,0,0,0,0.00
29738,3176508,0,0,0,0.269258,0.225055,9.754948,0,0,0,0,0,0,0.00
29740,3176547,0,0,0,0.278899,0.234674,9.769245,0,0,0,0,0,0,0.00
29742,3176587,0,0,0,0.264551,0.239394,9.774142,0,0,0,0,0,0,0.00
29744,3176627,0,0,0,0.274037,0.234651,9.759691,0,0,0,0,0,0,0.00
29746,3176666,0,0,0,0.255012,0.239349,9.779010,0,0,0,0,0,0,0.00
29748,3176706,0,0,0,0.269016,0.253778,9.740518,0,0,0,0,0,0,0.00
29750,3176746,0,0,0,0.259564,0.234585,9.745415,0,0,0,0,0,0,0.00
29752,3176785,0,0,0,0.264529,0.244182,9.774135,0,0,0,0,0,0,0.00
29753,3176805,0,0,0,0.264441,0.239394,9.759757,0,0,0,0,0,0,0.00
29756,3176845,0,0,0,0.264301,0.253756,9.750144,0,0,0,0,0,0,0.00
29758,3176885,0,0,0,0.269273,0.253778,9.774083,0,0,0,0,0,0,0.00
29760,3176924,0,0,0,0.273826,0.249012,9.740489,0,0,0,0,0,0,0.00
29762,3176964,0,0,0,0.269323,0.234629,9.769318,0,0,0,0,0,0,0.00
29764,3177004,0,0,0,0.259755,0.225011,9.764610,0,0,0,0,0,0,0.00
29766,3177043,0,0,0,0.269323,0.234629,9.769318,0,0,0,0,0,0,0.00
29768,3177083,0,0,0,0.259741,0.244160,9.774171,0,0,0,0,0,0,0.00
29770,3177123,0,0,0,0.269295,0.248990,9.774091,0,0,0,0,0,0,0.00
29772,3177162,0,0,0,0.254623,0.268072,9.745399,0,0,0,0,0,0,0.00
29774,3177202,0,0,0,0.235794,0.253622,9.779133,0,0,0,0,0,0,0.00
29777,3177242,0,0,0,0.259506,0.263308,9.754960,0,0,0,0,0,0,0.00
29779,3177282,0,0,0,0.278790,0.258610,9.769208,0,0,0,0,0,0,0.00
29781,3177321,0,0,0,0.288292,0.234717,9.745196,0,0,0,0,0,0,0.00
29783,3177361,0,0,0,0.278716,0.234674,9.745270,0,0,0,0,0,0,0.00
29785,3177401,0,0,0,0.269470,0.234629,9.788498,0,0,0,0,0,0,0.00
29787,3177440,0,0,0,0.274192,0.225077,9.774092,0,0,0,0,0,0,0.00
29789,3177480,0,0,0,0.264639,0.244182,9.788520,0,0,0,0,0,0,0.00
29791,3177520,0,0,0,0.254769,0.244137,9.750232,0,0,0,0,0,0,0.00
29793,3177559,0,0,0,0.268943,0.253778,9.730927,0,0,0,0,0,0,0.00
29795,3177599,0,0,0,0.274060,0.253799,9.774047,0,0,0,0,0,0,0.00
29798,3177639,0,0,0,0.250048,0.253689,9.764638,0,0,0,0,0,0,0.00
29799,3177659,0,0,0,0.249688,0.268050,9.726254,0,0,0,0,0,0,0.00
29801,3177698,0,0,0,0.264573,0.258543,9.788497,0,0,0,0,0,0,0.00
29803,3177738,0,0,0,0.250010,0.229753,9.745495,0,0,0,0,0,0,0.00
29805,3177778,0,0,0,0.259608,0.248946,9.759778,0,0,0,0,0,0,0.00
29807,3177817,0,0,0,0.269126,0.253778,9.754903,0,0,0,0,0,0,0.00
29809,3177857,0,0,0,0.269184,0.248990,9.759706,0,0,0,0,0,0,0.00
29811,3177897,0,0,0,0.264529,0.244182,9.774135,0,0,0,0,0,0,0.00
29813,3177937,0,0,0,0.254975,0.239349,9.774215,0,0,0,0,0,0,0.00
29815,3177976,0,0,0,0.259330,0.253734,9.726204,0,0,0,0,0,0,0.00
29817,3178007,0.262999,0.245769,9.753792,0,0,0,-0.128807,0.680407,-0.583535,3.135043,-2.606563,-11.104164,28.50
29820,3178056,0,0,0,0.240641,0.272793,9.798247,0,0,0,0,0,0,0.00
29822,3178095,0,0,0,0.264192,0.253756,9.735759,0,0,0,0,0,0,0.00
29824,3178135,0,0,0,0.264448,0.253756,9.769324,0,0,0,0,0,0,0.00
29826,3178175,0,0,0,0.264654,0.248968,9.793307,0,0,0,0,0,0,0.00
29828,3178214,0,0,0,0.278768,0.239461,9.754853,0,0,0,0,0,0,0.00
29830,3178254,0,0,0,0.254975,0.239349,9.774215,0,0,0,0,0,0,0.00
29832,3178294,0,0,0,0.269301,0.239416,9.769311,0,0,0,0,0,0,0.00
29834,3178333,0,0,0,0.259572,0.248946,9.754983,0,0,0,0,0,0,0.00
29838,3178413,0,0,0,0.259484,0.244160,9.740605,0,0,0,0,0,0,0.00
29841,3178453,0,0,0,0.254953,0.244137,9.774207,0,0,0,0,0,0,0.00
29842,3178472,0,0,0,0.250128,0.244115,9.769448,0,0,0,0,0,0,0.00
29844,3178512,0,0,0,0.259711,0.258521,9.778943,0,0,0,0,0,0,0.00
29846,3178552,0,0,0,0.264595,0.253756,9.788505,0,0,0,0,0,0,0.00
29848,3178591,0,0,0,0.254975,0.239349,9.774215,0,0,0,0,0,0,0.00
29850,3178631,0,0,0,0.293131,0.239528,9.754744,0,0,0,0,0,0,0.00
29852,3178671,0,0,0,0.264720,0.234607,9.793329,0,0,0,0,0,0,0.00
29854,3178711,0,0,0,0.254902,0.239349,9.764625,0,0,0,0,0,0,0.00
29856,3178750,0,0,0,0.283547,0.249057,9.759596,0,0,0,0,0,0,0.00
29858,3178790,0,0,0,0.273993,0.244226,9.759677,0,0,0,0,0,0,0.00
29861,3178830,0,0,0,0.269331,0.248990,9.778886,0,0,0,0,0,0,0.00
29863,3178869,0,0,0,0.273613,0.311245,9.749982,0,0,0,0,0,0,0.00
29865,3178909,0,0,0,0.283262,0.287354,9.745151,0,0,0,0,0,0,0.00
29867,3178949,0,0,0,0.307590,0.234806,9.764232,0,0,0,0,0,0,0.00
29869,3178988,0,0,0,0.283935,0.172462,9.764510,0,0,0,0,0,0,0.00
29871,3179028,0,0,0,0.211941,0.162556,9.736300,0,0,0,0,0,0,0.00
29873,3179068,0,0,0,0.154708,0.210160,9.794204,0,0,0,0,0,0,0.00
29875,3179108,0,0,0,0.192520,0.253423,9.755485,0,0,0,0,0,0,0.00
29877,3179147,0,0,0,0.283358,0.282567,9.754748,0,0,0,0,0,0,0.00
29879,3179187,0,0,0,0.326991,0.268406,9.816780,0,0,0,0,0,0,0.00
29881,3179207,0.276547,0.275558,9.771565,0,0,0,-0.127312,0.678916,-0.583539,3.140258,-2.608393,-11.103860,28.50
29884,3179266,0,0,0,0.307084,0.297039,9.735364,0,0,0,0,0,0,0.00
29885,3179286,0,0,0,0.264368,0.287266,9.778862,0,0,0,0,0,0,0.00
29887,3179326,0,0,0,0.206884,0.277425,9.769723,0,0,0,0,0,0,0.00
29889,3179366,0,0,0,0.206891,0.243915,9.750595,0,0,0,0,0,0,0.00
29891,3179405,0,0,0,0.240764,0.205772,9.774376,0,0,0,0,0,0,0.00
29893,3179445,0,0,0,0.269461,0.172396,9.750235,0,0,0,0,0,0,0.00
29895,3179485,0,0,0,0.269293,0.201118,9.745395,0,0,0,0,0,0,0.00
29897,3179524,0,0,0,0.235875,0.267983,9.798290,0,0,0,0,0,0,0.00
29901,3179604,0,0,0,0.240361,0.253644,9.750326,0,0,0,0,0,0,0.00
29904,3179643,0,0,0,0.269353,0.244204,9.778893,0,0,0,0,0,0,0.00
29906,3179683,0,0,0,0.273985,0.205928,9.735761,0,0,0,0,0,0,0.00
29908,3179723,0,0,0,0.264625,0.239394,9.783732,0,0,0,0,0,0,0.00
29910,3179762,0,0,0,0.274016,0.263373,9.774032,0,0,0,0,0,0,0.00
29912,3179802,0,0,0,0.297640,0.244337,9.721133,0,0,0,0,0,0,0.00
29914,3179842,0,0,0,0.264764,0.225033,9.793344,0,0,0,0,0,0,0.00
29915,3179862,0,0,0,0.245612,0.224944,9.793489,0,0,0,0,0,0,0.00
29917,3179901,0,0,0,0.235690,0.220112,9.745620,0,0,0,0,0,0,0.00
29919,3179941,0,0,0,0.240545,0.253644,9.774302,0,0,0,0,0,0,0.00
29921,3179981,0,0,0,0.259492,0.282456,9.764521,0,0,0,0,0,0,0.00
29924,3180020,0,0,0,0.287963,0.282589,9.730737,0,0,0,0,0,0,0.00
29926,3180060,0,0,0,0.278811,0.229887,9.754868,0,0,0,0,0,0,0.00
29928,3180100,0,0,0,0.269228,0.239416,9.759721,0,0,0,0,0,0,0.00
29930,3180140,0,0,0,0.269170,0.268139,9.769265,0,0,0,0,0,0,0.00
29932,3180179,0,0,0,0.264712,0.244182,9.798110,0,0,0,0,0,0,0.00
29934,3180219,0,0,0,0.254462,0.263285,9.721430,0,0,0,0,0,0,0.00
29936,3180259,0,0,0,0.259865,0.225011,9.778996,0,0,0,0,0,0,0.00
29938,3180298,0,0,0,0.240574,0.239283,9.769529,0,0,0,0,0,0,0.00
29940,3180338,0,0,0,0.278636,0.244248,9.740460,0,0,0,0,0,0,0.00
29942,3180378,0,0,0,0.250157,0.253689,9.779023,0,0,0,0,0,0,0.00
29944,3180407,0.260398,0.245653,9.762521,0,0,0,-0.127787,0.678433,-0.585051,3.137252,-2.609667,-11.102089,28.50
29947,3180457,0,0,0,0.268943,0.253778,9.730927,0,0,0,0,0,0,0.00
29949,3180497,0,0,0,0.264507,0.248968,9.774127,0,0,0,0,0,0,0.00
29951,3180537,0,0,0,0.274126,0.239438,9.774070,0,0,0,0,0,0,0.00
29953,3180576,0,0,0,0.278665,0.253822,9.750035,0,0,0,0,0,0,0.00
29955,3180616,0,0,0,0.268993,0.234629,9.726161,0,0,0,0,0,0,0.00
29957,3180656,0,0,0,0.259739,0.220223,9.759823,0,0,0,0,0,0,0.00
29959,3180695,0,0,0,0.250150,0.239327,9.769456,0,0,0,0,0,0,0.00
29961,3180735,0,0,0,0.264514,0.239394,9.769347,0,0,0,0,0,0,0.00
29965,3180814,0,0,0,0.254682,0.263285,9.750201,0,0,0,0,0,0,0.00
29968,3180854,0,0,0,0.259469,0.239372,9.735818,0,0,0,0,0,0,0.00
29969,3180874,0,0,0,0.259469,0.263308,9.750165,0,0,0,0,0,0,0.00
29971,3180914,0,0,0,0.274031,0.244226,9.764472,0,0,0,0,0,0,0.00
29973,3180953,0,0,0,0.264500,0.234607,9.764559,0,0,0,0,0,0,0.00
29975,3180993,0,0,0,0.274037,0.234651,9.759691,0,0,0,0,0,0,0.00
29977,3181033,0,0,0,0.259440,0.253734,9.740590,0,0,0,0,0,0,0.00
29979,3181072,0,0,0,0.254755,0.239349,9.745444,0,0,0,0,0,0,0.00
29981,3181112,0,0,0,0.274243,0.229864,9.783674,0,0,0,0,0,0,0.00
29983,3181152,0,0,0,0.254843,0.244137,9.759822,0,0,0,0,0,0,0.00
29985,3181191,0,0,0,0.240567,0.248857,9.774309,0,0,0,0,0,0,0.00
29987,3181207,0.256710,0.234851,9.768562,0,0,0,-0.127785,0.680440,-0.586030,3.137537,-2.609599,-11.102096,28.50
29990,3181271,0,0,0,0.249747,0.263263,9.731057,0,0,0,0,0,0,0.00
29992,3181311,0,0,0,0.264287,0.248968,9.745357,0,0,0,0,0,0,0.00
29994,3181350,0,0,0,0.259777,0.244160,9.778966,0,0,0,0,0,0,0.00
29996,3181390,0,0,0,0.274081,0.225077,9.759706,0,0,0,0,0,0,0.00
29997,3181410,0,0,0,0.264074,0.239394,9.711805,0,0,0,0,0,0,0.00
30000,3181469,0,0,0,0.254887,0.234562,9.759836,0,0,0,0,0,0,0.00
30001,3181489,0,0,0,0.264251,0.248968,9.740561,0,0,0,0,0,0,0.00
30003,3181529,0,0,0,0.245384,0.234518,9.769499,0,0,0,0,0,0,0.00
30007,3181608,0,0,0,0.269214,0.258565,9.769280,0,0,0,0,0,0,0.00
30010,3181648,0,0,0,0.254858,0.272860,9.778957,0,0,0,0,0,0,0.00
30012,3181688,0,0,0,0.268847,0.258565,9.721329,0,0,0,0,0,0,0.00
30014,3181727,0,0,0,0.254747,0.248923,9.750224,0,0,0,0,0,0,0.00
30016,3181767,0,0,0,0.279002,0.244248,9.788411,0,0,0,0,0,0,0.00
30018,3181807,0,0,0,0.264331,0.239394,9.745372,0,0,0,0,0,0,0.00
30019,3181827,0,0,0,0.259337,0.244160,9.721424,0,0,0,0,0,0,0.00
30021,3181866,0,0,0,0.264573,0.234607,9.774149,0,0,0,0,0,0,0.00
30023,3181906,0,0,0,0.264176,0.225033,9.716622,0,0,0,0,0,0,0.00
30025,3181946,0,0,0,0.254857,0.224988,9.750261,0,0,0,0,0,0,0.00
30027,3181985,0,0,0,0.255012,0.239349,9.779010,0,0,0,0,0,0,0.00
30030,3182025,0,0,0,0.274038,0.258587,9.774039,0,0,0,0,0,0,0.00
30032,3182065,0,0,0,0.250040,0.263263,9.769418,0,0,0,0,0,0,0.00
30034,3182104,0,0,0,0.273569,0.272948,9.721271,0,0,0,0,0,0,0.00
30036,3182144,0,0,0,0.259315,0.248946,9.721416,0,0,0,0,0,0,0.00
30038,3182184,0,0,0,0.269544,0.234629,9.798088,0,0,0,0,0,0,0.00
30040,3182224,0,0,0,0.269022,0.220267,9.721389,0,0,0,0,0,0,0.00
30042,3182263,0,0,0,0.264609,0.234607,9.778944,0,0,0,0,0,0,0.00
30044,3182303,0,0,0,0.273957,0.244226,9.754882,0,0,0,0,0,0,0.00
30046,3182343,0,0,0,0.268854,0.248990,9.716549,0,0,0,0,0,0,0.00
30048,3182382,0,0,0,0.255004,0.224988,9.769442,0,0,0,0,0,0,0.00
30050,3182407,0.263400,0.236364,9.742599,0,0,0,-0.128267,0.678948,-0.586552,3.140316,-2.611399,-11.101782,28.50
30053,3182462,0,0,0,0.259506,0.263308,9.754960,0,0,0,0,0,0,0.00
30055,3182501,0,0,0,0.259425,0.272882,9.750151,0,0,0,0,0,0,0.00
30057,3182541,0,0,0,0.254498,0.263285,9.726225,0,0,0,0,0,0,0.00
30059,3182581,0,0,0,0.259711,0.234585,9.764595,0,0,0,0,0,0,0.00
30060,3182601,0,0,0,0.249996,0.248901,9.755055,0,0,0,0,0,0,0.00
30063,3182660,0,0,0,0.278774,0.229887,9.750072,0,0,0,0,0,0,0.00
30064,3182680,0,0,0,0.278658,0.239461,9.740468,0,0,0,0,0,0,0.00
30066,3182720,0,0,0,0.273979,0.239438,9.754889,0,0,0,0,0,0,0.00
30070,3182799,0,0,0,0.278746,0.244248,9.754846,0,0,0,0,0,0,0.00
30073,3182839,0,0,0,0.254894,0.248923,9.769404,0,0,0,0,0,0,0.00
30075,3182878,0,0,0,0.264273,0.268117,9.754916,0,0,0,0,0,0,0.00
30077,3182918,0,0,0,0.235457,0.263196,9.740757,0,0,0,0,0,0,0.00
30079,3182958,0,0,0,0.249996,0.248901,9.755055,0,0,0,0,0,0,0.00
30081,3182998,0,0,0,0.264397,0.248968,9.759742,0,0,0,0,0,0,0.00
30083,3183037,0,0,0,0.259652,0.239372,9.759793,0,0,0,0,0,0,0.00
30084,3183057,0,0,0,0.274155,0.225077,9.769297,0,0,0,0,0,0,0.00
30086,3183097,0,0,0,0.269220,0.225055,9.750153,0,0,0,0,0,0,0.00
30088,3183136,0,0,0,0.273729,0.229864,9.716542,0,0,0,0,0,0,0.00
30090,3183176,0,0,0,0.278474,0.239461,9.716492,0,0,0,0,0,0,0.00
30093,3183216,0,0,0,0.273950,0.253799,9.759662,0,0,0,0,0,0,0.00
30095,3183256,0,0,0,0.259697,0.253734,9.774156,0,0,0,0,0,0,0.00
30097,3183295,0,0,0,0.245193,0.244093,9.750304,0,0,0,0,0,0,0.00
30099,3183335,0,0,0,0.240383,0.248857,9.750334,0,0,0,0,0,0,0.00
30101,3183375,0,0,0,0.259462,0.248946,9.740598,0,0,0,0,0,0,0.00
30103,3183414,0,0,0,0.249813,0.248901,9.731080,0,0,0,0,0,0,0.00
30105,3183454,0,0,0,0.264558,0.229820,9.769361,0,0,0,0,0,0,0.00
30107,3183494,0,0,0,0.254741,0.234562,9.740656,0,0,0,0,0,0,0.00
30109,3183533,0,0,0,0.269096,0.244204,9.745328,0,0,0,0,0,0,0.00
30111,3183573,0,0,0,0.278693,0.215526,9.730915,0,0,0,0,0,0,0.00
30113,3183613,0,0,0,0.259469,0.239372,9.735818,0,0,0,0,0,0,0.00
30116,3183653,0,0,0,0.274059,0.229864,9.759699,0,0,0,0,0,0,0.00
30118,3183692,0,0,0,0.283394,0.258632,9.745195,0,0,0,0,0,0,0.00
30120,3183732,0,0,0,0.259462,0.272882,9.754946,0,0,0,0,0,0,0.00
30122,3183772,0,0,0,0.254946,0.253711,9.778987,0,0,0,0,0,0,0.00
30124,3183811,0,0,0,0.244761,0.258454,9.702330,0,0,0,0,0,0,0.00
30126,3183851,0,0,0,0.254930,0.224988,9.759851,0,0,0,0,0,0,0.00
30128,3183891,0,0,0,0.250047,0.229753,9.750290,0,0,0,0,0,0,0.00
30129,3183911,0,0,0,0.264338,0.229820,9.740591,0,0,0,0,0,0,0.00
30131,3183950,0,0,0,0.269038,0.248990,9.740525,0,0,0,0,0,0,0.00
30133,3183990,0,0,0,0.278833,0.225100,9.754875,0,0,0,0,0,0,0.00
30136,3184030,0,0,0,0.278591,0.229887,9.726096,0,0,0,0,0,0,0.00
30138,3184069,0,0,0,0.269279,0.244204,9.769303,0,0,0,0,0,0,0.00
30140,3184109,0,0,0,0.245348,0.258454,9.779052,0,0,0,0,0,0,0.00
30142,3184149,0,0,0,0.264141,0.272904,9.740524,0,0,0,0,0,0,0.00
30144,3184188,0,0,0,0.259367,0.253734,9.731000,0,0,0,0,0,0,0.00
30146,3184228,0,0,0,0.240252,0.253644,9.735941,0,0,0,0,0,0,0.00
30148,3184268,0,0,0,0.250106,0.224966,9.755093,0,0,0,0,0,0,0.00
30150,3184307,0,0,0,0.245370,0.253667,9.779059,0,0,0,0,0,0,0.00
30152,3184347,0,0,0,0.264367,0.239394,9.750167,0,0,0,0,0,0,0.00
30154,3184387,0,0,0,0.278416,0.244248,9.711689,0,0,0,0,0,0,0.00
30157,3184427,0,0,0,0.278841,0.239461,9.764443,0,0,0,0,0,0,0.00
30159,3184466,0,0,0,0.269192,0.239416,9.754926,0,0,0,0,0,0,0.00
30161,3184506,0,0,0,0.264434,0.248968,9.764537,0,0,0,0,0,0,0.00
30163,3184546,0,0,0,0.269207,0.268139,9.774060,0,0,0,0,0,0,0.00
30165,3184585,0,0,0,0.268929,0.272926,9.740488,0,0,0,0,0,0,0.00
30167,3184625,0,0,0,0.244960,0.263241,9.731093,0,0,0,0,0,0,0.00
30169,3184665,0,0,0,0.264587,0.239394,9.778937,0,0,0,0,0,0,0.00
30171,3184704,0,0,0,0.259696,0.229798,9.759808,0,0,0,0,0,0,0.00
30173,3184744,0,0,0,0.259814,0.234573,9.778994,0,0,0,0,0,0,0.00
30175,3184784,0,0,0,0.250151,0.229741,9.764688,0,0,0,0,0,0,0.00
30176,3184804,0,0,0,0.269177,0.225043,9.745370,0,0,0,0,0,0,0.00
30179,3184843,0,0,0,0.278665,0.220301,9.730920,0,0,0,0,0,0,0.00
30181,3184883,0,0,0,0.273973,0.239427,9.754902,0,0,0,0,0,0,0.00
30183,3184923,0,0,0,0.274046,0.263362,9.778840,0,0,0,0,0,0,0.00
30185,3184962,0,0,0,0.264507,0.263318,9.783708,0,0,0,0,0,0,0.00
30187,3185002,0,0,0,0.269046,0.253766,9.745325,0,0,0,0,0,0,0.00
30189,3185042,0,0,0,0.249872,0.258465,9.745462,0,0,0,0,0,0,0.00
30191,3185082,0,0,0,0.259345,0.248935,9.726225,0,0,0,0,0,0,0.00
30193,3185121,0,0,0,0.240575,0.229696,9.764761,0,0,0,0,0,0,0.00
30195,3185161,0,0,0,0.245305,0.258443,9.774269,0,0,0,0,0,0,0.00
30197,3185201,0,0,0,0.250011,0.244102,9.755075,0,0,0,0,0,0,0.00
30200,3185240,0,0,0,0.254813,0.224977,9.745479,0,0,0,0,0,0,0.00
30202,3185280,0,0,0,0.273898,0.215490,9.730964,0,0,0,0,0,0,0.00
30204,3185320,0,0,0,0.283548,0.239471,9.754829,0,0,0,0,0,0,0.00
30206,3185359,0,0,0,0.274038,0.249001,9.769272,0,0,0,0,0,0,0.00
30208,3185399,0,0,0,0.269193,0.253766,9.764505,0,0,0,0,0,0,0.00
30210,3185439,0,0,0,0.259456,0.272871,9.754958,0,0,0,0,0,0,0.00
30212,3185478,0,0,0,0.240531,0.239271,9.764747,0,0,0,0,0,0,0.00
30214,3185518,0,0,0,0.245070,0.253655,9.740711,0,0,0,0,0,0,0.00
30216,3185558,0,0,0,0.240414,0.248845,9.755141,0,0,0,0,0,0,0.00
30218,3185598,0,0,0,0.245246,0.239294,9.755119,0,0,0,0,0,0,0.00
30221,3185637,0,0,0,0.273774,0.234639,9.726138,0,0,0,0,0,0,0.00
30222,3185657,0,0,0,0.273951,0.244213,9.754894,0,0,0,0,0,0,0.00
30225,3185717,0,0,0,0.278555,0.244236,9.730883,0,0,0,0,0,0,0.00
30226,3185736,0,0,0,0.273914,0.244213,9.750099,0,0,0,0,0,0,0.00
30228,3185776,0,0,0,0.288402,0.249067,9.769162,0,0,0,0,0,0,0.00
30230,3185816,0,0,0,0.264265,0.268106,9.754929,0,0,0,0,0,0,0.00
30232,3185856,0,0,0,0.273870,0.253788,9.750084,0,0,0,0,0,0,0.00
30234,3185895,0,0,0,0.249982,0.258465,9.759848,0,0,0,0,0,0,0.00
30236,3185935,0,0,0,0.240252,0.244058,9.731174,0,0,0,0,0,0,0.00
30238,3185975,0,0,0,0.240494,0.239271,9.759952,0,0,0,0,0,0,0.00
30240,3186014,0,0,0,0.249909,0.258465,9.750257,0,0,0,0,0,0,0.00
30243,3186054,0,0,0,0.264287,0.239383,9.740589,0,0,0,0,0,0,0.00
30245,3186094,0,0,0,0.274031,0.234639,9.759704,0,0,0,0,0,0,0.00
30246,3186114,0,0,0,0.278796,0.239450,9.759661,0,0,0,0,0,0,0.00
30249,3186173,0,0,0,0.278774,0.244236,9.759653,0,0,0,0,0,0,0.00
30250,3186193,0,0,0,0.273966,0.272937,9.774030,0,0,0,0,0,0,0.00
30252,3186233,0,0,0,0.269171,0.258554,9.764498,0,0,0,0,0,0,0.00
30254,3186272,0,0,0,0.264404,0.253744,9.764542,0,0,0,0,0,0,0.00
30256,3186312,0,0,0,0.240267,0.248845,9.735961,0,0,0,0,0,0,0.00
30258,3186352,0,0,0,0.249953,0.248890,9.750273,0,0,0,0,0,0,0.00
30260,3186391,0,0,0,0.254835,0.244124,9.759834,0,0,0,0,0,0,0.00
30263,3186431,0,0,0,0.264397,0.239383,9.754974,0,0,0,0,0,0,0.00
30265,3186471,0,0,0,0.264009,0.244169,9.707016,0,0,0,0,0,0,0.00
30267,3186511,0,0,0,0.269171,0.234617,9.750150,0,0,0,0,0,0,0.00
30269,3186550,0,0,0,0.283702,0.229897,9.769229,0,0,0,0,0,0,0.00
30271,3186590,0,0,0,0.288218,0.249067,9.745187,0,0,0,0,0,0,0.00
30273,3186630,0,0,0,0.288306,0.253855,9.759564,0,0,0,0,0,0,0.00
30275,3186669,0,0,0,0.264317,0.248957,9.750164,0,0,0,0,0,0,0.00
30277,3186709,0,0,0,0.269068,0.248979,9.745333,0,0,0,0,0,0,0.00
30279,3186749,0,0,0,0.250085,0.244102,9.764666,0,0,0,0,0,0,0.00
30281,3186788,0,0,0,0.230830,0.258376,9.759994,0,0,0,0,0,0,0.00
30282,3186808,0,0,0,0.235487,0.239249,9.731217,0,0,0,0,0,0,0.00
30285,3186848,0,0,0,0.245202,0.248868,9.755104,0,0,0,0,0,0,0.00
30287,3186888,0,0,0,0.259697,0.220212,9.755040,0,0,0,0,0,0,0.00
30289,3186927,0,0,0,0.264323,0.239383,9.745384,0,0,0,0,0,0,0.00
30291,3186967,0,0,0,0.288365,0.249067,9.764367,0,0,0,0,0,0,0.00
30293,3187007,0,0,0,0.288182,0.249067,9.740392,0,0,0,0,0,0,0.00
30295,3187046,0,0,0,0.278680,0.249023,9.750055,0,0,0,0,0,0,0.00
30297,3187086,0,0,0,0.264631,0.244169,9.788533,0,0,0,0,0,0,0.00
30299,3187126,0,0,0,0.259382,0.248935,9.731020,0,0,0,0,0,0,0.00
30301,3187165,0,0,0,0.250107,0.239316,9.764673,0,0,0,0,0,0,0.00
30303,3187205,0,0,0,0.245151,0.244081,9.745522,0,0,0,0,0,0,0.00
30306,3187245,0,0,0,0.249975,0.244102,9.750280,0,0,0,0,0,0,0.00
30308,3187285,0,0,0,0.245312,0.248868,9.769489,0,0,0,0,0,0,0.00
30310,3187324,0,0,0,0.269105,0.248979,9.750128,0,0,0,0,0,0,0.00
30312,3187364,0,0,0,0.264389,0.248957,9.759754,0,0,0,0,0,0,0.00
30314,3187404,0,0,0,0.278687,0.239450,9.745275,0,0,0,0,0,0,0.00
30316,3187443,0,0,0,0.283725,0.249045,9.783586,0,0,0,0,0,0,0.00
30318,3187483,0,0,0,0.279024,0.229875,9.783651,0,0,0,0,0,0,0.00
30320,3187523,0,0,0,0.283439,0.263407,9.754791,0,0,0,0,0,0,0.00
30322,3187562,0,0,0,0.259756,0.239361,9.774191,0,0,0,0,0,0,0.00
30324,3187602,0,0,0,0.249975,0.244102,9.750280,0,0,0,0,0,0,0.00
30327,3187642,0,0,0,0.249902,0.244102,9.740690,0,0,0,0,0,0,0.00
30329,3187681,0,0,0,0.245349,0.248868,9.774284,0,0,0,0,0,0,0.00
30330,3187701,0,0,0,0.245429,0.239294,9.779096,0,0,0,0,0,0,0.00
30332,3187741,0,0,0,0.259624,0.244147,9.759798,0,0,0,0,0,0,0.00
30334,3187781,0,0,0,0.264492,0.234595,9.764571,0,0,0,0,0,0,0.00
30336,3187820,0,0,0,0.288226,0.239493,9.740407,0,0,0,0,0,0,0.00
30338,3187860,0,0,0,0.288314,0.244280,9.754785,0,0,0,0,0,0,0.00
30340,3187900,0,0,0,0.283791,0.234684,9.783607,0,0,0,0,0,0,0.00
30342,3187940,0,0,0,0.274016,0.253788,9.769264,0,0,0,0,0,0,0.00
30344,3187979,0,0,0,0.269068,0.248979,9.745333,0,0,0,0,0,0,0.00
30347,3188019,0,0,0,0.240714,0.239271,9.788723,0,0,0,0,0,0,0.00
30349,3188059,0,0,0,0.235414,0.239249,9.721627,0,0,0,0,0,0,0.00
30351,3188098,0,0,0,0.230911,0.248801,9.764804,0,0,0,0,0,0,0.00
30353,3188138,0,0,0,0.235831,0.244036,9.779161,0,0,0,0,0,0,0.00
30355,3188178,0,0,0,0.254725,0.244124,9.745449,0,0,0,0,0,0,0.00
30357,3188217,0,0,0,0.273958,0.234639,9.750113,0,0,0,0,0,0,0.00
30359,3188257,0,0,0,0.278951,0.229875,9.774060,0,0,0,0,0,0,0.00
30361,3188297,0,0,0,0.307297,0.249156,9.735452,0,0,0,0,0,0,0.00
30363,3188336,0,0,0,0.274207,0.244213,9.788461,0,0,0,0,0,0,0.00
30365,3188376,0,0,0,0.269420,0.244191,9.788497,0,0,0,0,0,0,0.00
30367,3188407,0.278572,0.243987,9.773000,0,0,0,-0.128296,0.679922,-0.584537,3.150678,-2.616826,-11.098010,28.52
30370,3188456,0,0,0,0.250055,0.258465,9.769438,0,0,0,0,0,0,0.00
30372,3188495,0,0,0,0.245202,0.248868,9.755104,0,0,0,0,0,0,0.00
30374,3188535,0,0,0,0.240399,0.244058,9.750354,0,0,0,0,0,0,0.00
30376,3188575,0,0,0,0.245444,0.244081,9.783883,0,0,0,0,0,0,0.00
30378,3188614,0,0,0,0.245004,0.244081,9.726341,0,0,0,0,0,0,0.00
30379,3188634,0,0,0,0.259521,0.258510,9.754980,0,0,0,0,0,0,0.00
30381,3188674,0,0,0,0.278877,0.253811,9.778819,0,0,0,0,0,0,0.00
30383,3188714,0,0,0,0.273819,0.249001,9.740501,0,0,0,0,0,0,0.00
30387,3188793,0,0,0,0.274478,0.225065,9.812466,0,0,0,0,0,0,0.00
30390,3188833,0,0,0,0.278774,0.244236,9.759653,0,0,0,0,0,0,0.00
30392,3188872,0,0,0,0.269207,0.258554,9.769293,0,0,0,0,0,0,0.00
30394,3188912,0,0,0,0.245356,0.239294,9.769505,0,0,0,0,0,0,0.00
30396,3188952,0,0,0,0.250151,0.229741,9.764688,0,0,0,0,0,0,0.00
30398,3188991,0,0,0,0.250107,0.239316,9.764673,0,0,0,0,0,0,0.00
30400,3189031,0,0,0,0.245304,0.234507,9.759921,0,0,0,0,0,0,0.00
30402,3189071,0,0,0,0.269149,0.239405,9.750143,0,0,0,0,0,0,0.00
30404,3189110,0,0,0,0.269258,0.239405,9.764528,0,0,0,0,0,0,0.00
30406,3189150,0,0,0,0.288212,0.258642,9.749967,0,0,0,0,0,0,0.00
30408,3189190,0,0,0,0.302876,0.249134,9.783440,0,0,0,0,0,0,0.00
30409,3189210,0,0,0,0.278995,0.244236,9.788424,0,0,0,0,0,0,0.00
30413,3189269,0,0,0,0.293117,0.249090,9.759536,0,0,0,0,0,0,0.00
30414,3189289,0,0,0,0.259683,0.239361,9.764601,0,0,0,0,0,0,0.00
30416,3189329,0,0,0,0.240282,0.253633,9.740748,0,0,0,0,0,0,0.00
30418,3189369,0,0,0,0.240553,0.258420,9.779102,0,0,0,0,0,0,0.00
30420,3189408,0,0,0,0.221227,0.248756,9.750491,0,0,0,0,0,0,0.00
30422,3189448,0,0,0,0.235678,0.253611,9.764760,0,0,0,0,0,0,0.00
30424,3189488,0,0,0,0.254704,0.248912,9.745441,0,0,0,0,0,0,0.00
30426,3189527,0,0,0,0.283512,0.263407,9.764381,0,0,0,0,0,0,0.00
30428,3189567,0,0,0,0.283453,0.244258,9.745232,0,0,0,0,0,0,0.00
30430,3189607,0,0,0,0.293396,0.244303,9.793110,0,0,0,0,0,0,0.00
30433,3189646,0,0,0,0.264411,0.244169,9.759762,0,0,0,0,0,0,0.00
30435,3189686,0,0,0,0.273973,0.239427,9.754902,0,0,0,0,0,0,0.00
30437,3189726,0,0,0,0.264323,0.239383,9.745384,0,0,0,0,0,0,0.00
30439,3189765,0,0,0,0.254769,0.234550,9.745463,0,0,0,0,0,0,0.00
30441,3189805,0,0,0,0.240641,0.239271,9.779133,0,0,0,0,0,0,0.00
30443,3189845,0,0,0,0.236000,0.239249,9.798349,0,0,0,0,0,0,0.00
30444,3189865,0,0,0,0.250268,0.244102,9.788642,0,0,0,0,0,0,0.00
30446,3189904,0,0,0,0.244916,0.263229,9.726311,0,0,0,0,0,0,0.00
30448,3189944,0,0,0,0.278774,0.244236,9.759653,0,0,0,0,0,0,0.00
30450,3189984,0,0,0,0.288284,0.258642,9.759557,0,0,0,0,0,0,0.00
30453,3190023,0,0,0,0.283600,0.244258,9.764412,0,0,0,0,0,0,0.00
30455,3190063,0,0,0,0.278833,0.239450,9.764456,0,0,0,0,0,0,0.00
30457,3190103,0,0,0,0.264506,0.239383,9.769360,0,0,0,0,0,0,0.00
30459,3190143,0,0,0,0.269354,0.234617,9.774125,0,0,0,0,0,0,0.00
30461,3190182,0,0,0,0.269112,0.239405,9.745348,0,0,0,0,0,0,0.00
30463,3190222,0,0,0,0.255003,0.215402,9.764674,0,0,0,0,0,0,0.00
30465,3190262,0,0,0,0.240619,0.244058,9.779125,0,0,0,0,0,0,0.00
30467,3190301,0,0,0,0.240326,0.244058,9.740764,0,0,0,0,0,0,0.00
30469,3190341,0,0,0,0.254894,0.263273,9.778985,0,0,0,0,0,0,0.00
30471,3190381,0,0,0,0.269097,0.258554,9.754908,0,0,0,0,0,0,0.00
30473,3190407,0.254870,0.256276,9.760954,0,0,0,-0.128772,0.679439,-0.586050,3.152458,-2.615440,-11.097813,28.52
30476,3190460,0,0,0,0.274097,0.244213,9.774075,0,0,0,0,0,0,0.00
30478,3190500,0,0,0,0.283651,0.249045,9.773994,0,0,0,0,0,0,0.00
30480,3190539,0,0,0,0.274141,0.234639,9.774089,0,0,0,0,0,0,0.00
30482,3190579,0,0,0,0.245385,0.224933,9.764731,0,0,0,0,0,0,0.00
30484,3190619,0,0,0,0.249938,0.244102,9.745485,0,0,0,0,0,0,0.00
30486,3190659,0,0,0,0.235890,0.239249,9.783964,0,0,0,0,0,0,0.00
30488,3190698,0,0,0,0.245136,0.263229,9.755081,0,0,0,0,0,0,0.00
30490,3190738,0,0,0,0.264323,0.263318,9.759731,0,0,0,0,0,0,0.00
30494,3190807,0.253123,0.257845,9.762569,0,0,0,-0.128786,0.680929,-0.585532,3.152957,-2.615378,-11.097391,28.52
30496,3190837,0,0,0,0.274038,0.249001,9.769272,0,0,0,0,0,0,0.00
30498,3190877,0,0,0,0.288387,0.244280,9.764375,0,0,0,0,0,0,0.00
30500,3190917,0,0,0,0.274318,0.244213,9.802846,0,0,0,0,0,0,0.00
30502,3190956,0,0,0,0.269317,0.234617,9.769330,0,0,0,0,0,0,0.00
30504,3190996,0,0,0,0.283666,0.229897,9.764434,0,0,0,0,0,0,0.00
30506,3191036,0,0,0,0.259822,0.224999,9.774213,0,0,0,0,0,0,0.00
30508,3191075,0,0,0,0.240722,0.229696,9.783942,0,0,0,0,0,0,0.00
30510,3191115,0,0,0,0.245349,0.248868,9.774284,0,0,0,0,0,0,0.00
30514,3191194,0,0,0,0.259448,0.258510,9.745390,0,0,0,0,0,0,0.00
30517,3191234,0,0,0,0.269258,0.263340,9.778876,0,0,0,0,0,0,0.00
30519,3191274,0,0,0,0.269119,0.253766,9.754915,0,0,0,0,0,0,0.00
30521,3191314,0,0,0,0.288439,0.249067,9.773957,0,0,0,0,0,0,0.00
30523,3191353,0,0,0,0.269486,0.253766,9.802867,0,0,0,0,0,0,0.00
30525,3191393,0,0,0,0.273657,0.244213,9.716534,0,0,0,0,0,0,0.00
30526,3191413,0,0,0,0.283534,0.234684,9.750041,0,0,0,0,0,0,0.00
30529,3191472,0,0,0,0.250246,0.224955,9.774285,0,0,0,0,0,0,0.00
30530,3191492,0,0,0,0.259587,0.244147,9.755003,0,0,0,0,0,0,0.00
30532,3191532,0,0,0,0.240641,0.239271,9.779133,0,0,0,0,0,0,0.00
30534,3191572,0,0,0,0.240421,0.263206,9.764709,0,0,0,0,0,0,0.00
30536,3191611,0,0,0,0.254697,0.258487,9.750221,0,0,0,0,0,0,0.00
30539,3191651,0,0,0,0.264273,0.282467,9.764497,0,0,0,0,0,0,0.00
30541,3191691,0,0,0,0.283512,0.263407,9.764381,0,0,0,0,0,0,0.00
30543,3191730,0,0,0,0.288240,0.244280,9.745194,0,0,0,0,0,0,0.00
30545,3191770,0,0,0,0.288658,0.225132,9.788381,0,0,0,0,0,0,0.00
30547,3191810,0,0,0,0.283526,0.244258,9.754822,0,0,0,0,0,0,0.00
30549,3191849,0,0,0,0.278819,0.258598,9.774015,0,0,0,0,0,0,0.00
30551,3191889,0,0,0,0.259961,0.234573,9.798174,0,0,0,0,0,0,0.00
30552,3191909,0,0,0,0.240487,0.248845,9.764731,0,0,0,0,0,0,0.00
30555,3191968,0,0,0,0.240523,0.248845,9.769526,0,0,0,0,0,0,0.00
30556,3191988,0,0,0,0.226043,0.258354,9.760030,0,0,0,0,0,0,0.00
30559,3192028,0,0,0,0.240436,0.267994,9.769496,0,0,0,0,0,0,0.00
30561,3192068,0,0,0,0.264360,0.263318,9.764526,0,0,0,0,0,0,0.00
30563,3192107,0,0,0,0.264441,0.253744,9.769337,0,0,0,0,0,0,0.00
30565,3192147,0,0,0,0.283541,0.249045,9.759609,0,0,0,0,0,0,0.00
30567,3192187,0,0,0,0.278892,0.234662,9.769258,0,0,0,0,0,0,0.00
30569,3192226,0,0,0,0.278855,0.234662,9.764462,0,0,0,0,0,0,0.00
30571,3192266,0,0,0,0.250077,0.229741,9.755097,0,0,0,0,0,0,0.00
30573,3192306,0,0,0,0.269163,0.244191,9.754930,0,0,0,0,0,0,0.00
30575,3192346,0,0,0,0.259748,0.248935,9.778972,0,0,0,0,0,0,0.00
30577,3192385,0,0,0,0.249858,0.253677,9.740675,0,0,0,0,0,0,0.00
30579,3192407,0.255624,0.247282,9.759289,0,0,0,-0.128284,0.680937,-0.586028,3.153455,-2.615429,-11.094649,28.52
30582,3192465,0,0,0,0.250019,0.258465,9.764643,0,0,0,0,0,0,0.00
30584,3192504,0,0,0,0.264184,0.253744,9.735771,0,0,0,0,0,0,0.00
30586,3192544,0,0,0,0.274060,0.244213,9.769279,0,0,0,0,0,0,0.00
30588,3192584,0,0,0,0.269574,0.234617,9.802896,0,0,0,0,0,0,0.00
30590,3192623,0,0,0,0.269215,0.248979,9.764513,0,0,0,0,0,0,0.00
30592,3192663,0,0,0,0.269354,0.234617,9.774125,0,0,0,0,0,0,0.00
30593,3192683,0,0,0,0.255026,0.234550,9.779030,0,0,0,0,0,0,0.00
30595,3192723,0,0,0,0.264732,0.205873,9.779002,0,0,0,0,0,0,0.00
30599,3192802,0,0,0,0.250026,0.248890,9.759863,0,0,0,0,0,0,0.00
30602,3192842,0,0,0,0.264462,0.248957,9.769344,0,0,0,0,0,0,0.00
30604,3192881,0,0,0,0.249704,0.287188,9.740623,0,0,0,0,0,0,0.00
30606,3192921,0,0,0,0.254763,0.244124,9.750244,0,0,0,0,0,0,0.00
30608,3192961,0,0,0,0.269295,0.239405,9.769323,0,0,0,0,0,0,0.00
30610,3193001,0,0,0,0.259609,0.239361,9.755011,0,0,0,0,0,0,0.00
30612,3193040,0,0,0,0.288519,0.239493,9.778769,0,0,0,0,0,0,0.00
30614,3193080,0,0,0,0.273943,0.229852,9.745326,0,0,0,0,0,0,0.00
30616,3193120,0,0,0,0.274053,0.229852,9.759711,0,0,0,0,0,0,0.00
30618,3193159,0,0,0,0.259808,0.244147,9.783774,0,0,0,0,0,0,0.00
30620,3193199,0,0,0,0.264316,0.225021,9.735816,0,0,0,0,0,0,0.00
30623,3193239,0,0,0,0.245254,0.253655,9.764687,0,0,0,0,0,0,0.00
30624,3193259,0,0,0,0.245371,0.244081,9.774292,0,0,0,0,0,0,0.00
30626,3193298,0,0,0,0.249916,0.248890,9.745478,0,0,0,0,0,0,0.00
30628,3193338,0,0,0,0.249821,0.253677,9.735880,0,0,0,0,0,0,0.00
30630,3193378,0,0,0,0.264587,0.253744,9.788518,0,0,0,0,0,0,0.00
30632,3193417,0,0,0,0.278584,0.253811,9.740458,0,0,0,0,0,0,0.00
30634,3193457,0,0,0,0.264609,0.225021,9.774177,0,0,0,0,0,0,0.00
30636,3193497,0,0,0,0.259631,0.234573,9.755017,0,0,0,0,0,0,0.00
30638,3193536,0,0,0,0.278877,0.229875,9.764470,0,0,0,0,0,0,0.00
30640,3193576,0,0,0,0.273943,0.229852,9.745326,0,0,0,0,0,0,0.00
30642,3193607,0.278283,0.233501,9.756492,0,0,0,-0.128769,0.678941,-0.586055,3.152762,-2.615714,-11.093114,28.52
30645,3193655,0,0,0,0.235641,0.253611,9.759965,0,0,0,0,0,0,0.00
30647,3193695,0,0,0,0.240451,0.272781,9.774284,0,0,0,0,0,0,0.00
30649,3193735,0,0,0,0.259441,0.268084,9.750170,0,0,0,0,0,0,0.00
30651,3193775,0,0,0,0.249858,0.277613,9.755023,0,0,0,0,0,0,0.00
30653,3193814,0,0,0,0.250019,0.258465,9.764643,0,0,0,0,0,0,0.00
30655,3193854,0,0,0,0.273965,0.249001,9.759682,0,0,0,0,0,0,0.00
30657,3193894,0,0,0,0.269273,0.244191,9.769316,0,0,0,0,0,0,0.00
30659,3193933,0,0,0,0.278965,0.234662,9.778849,0,0,0,0,0,0,0.00
30663,3194013,0,0,0,0.259639,0.224999,9.750237,0,0,0,0,0,0,0.00
30666,3194052,0,0,0,0.254755,0.253699,9.755024,0,0,0,0,0,0,0.00
30667,3194072,0,0,0,0.250121,0.244102,9.769461,0,0,0,0,0,0,0.00
30669,3194112,0,0,0,0.264309,0.258532,9.754944,0,0,0,0,0,0,0.00
30671,3194152,0,0,0,0.254777,0.248912,9.755032,0,0,0,0,0,0,0.00
30673,3194191,0,0,0,0.250063,0.248890,9.764658,0,0,0,0,0,0,0.00
30675,3194231,0,0,0,0.259551,0.244147,9.750208,0,0,0,0,0,0,0.00
30677,3194271,0,0,0,0.245129,0.248868,9.745514,0,0,0,0,0,0,0.00
30679,3194310,0,0,0,0.264653,0.239383,9.788541,0,0,0,0,0,0,0.00
30681,3194350,0,0,0,0.278907,0.239450,9.774046,0,0,0,0,0,0,0.00
30683,3194390,0,0,0,0.278569,0.249023,9.735670,0,0,0,0,0,0,0.00
30686,3194430,0,0,0,0.283650,0.225110,9.759646,0,0,0,0,0,0,0.00
30688,3194469,0,0,0,0.264624,0.229808,9.778965,0,0,0,0,0,0,0.00
30690,3194509,0,0,0,0.254791,0.253699,9.759819,0,0,0,0,0,0,0.00
30692,3194549,0,0,0,0.245334,0.244081,9.769497,0,0,0,0,0,0,0.00
30694,3194588,0,0,0,0.245033,0.253655,9.735916,0,0,0,0,0,0,0.00
30696,3194628,0,0,0,0.254894,0.239338,9.764637,0,0,0,0,0,0,0.00
30698,3194668,0,0,0,0.259587,0.244147,9.755003,0,0,0,0,0,0,0.00
30700,3194707,0,0,0,0.273899,0.239427,9.745312,0,0,0,0,0,0,0.00
30702,3194747,0,0,0,0.269324,0.248979,9.778899,0,0,0,0,0,0,0.00
30704,3194787,0,0,0,0.288087,0.253855,9.730794,0,0,0,0,0,0,0.00
30706,3194807,0.277593,0.245780,9.761011,0,0,0,-0.128781,0.678929,-0.585054,3.154219,-2.615978,-11.094052,28.52
30709,3194866,0,0,0,0.269398,0.225043,9.774140,0,0,0,0,0,0,0.00
30710,3194886,0,0,0,0.274295,0.225065,9.788490,0,0,0,0,0,0,0.00
30712,3194926,0,0,0,0.273892,0.249001,9.750092,0,0,0,0,0,0,0.00
30714,3194965,0,0,0,0.245664,0.220145,9.798306,0,0,0,0,0,0,0.00
30716,3195005,0,0,0,0.250041,0.253677,9.764650,0,0,0,0,0,0,0.00
30718,3195045,0,0,0,0.254791,0.253699,9.759819,0,0,0,0,0,0,0.00
30720,3195084,0,0,0,0.254719,0.253699,9.750229,0,0,0,0,0,0,0.00
30722,3195124,0,0,0,0.259617,0.253722,9.764578,0,0,0,0,0,0,0.00
30726,3195204,0,0,0,0.278635,0.234662,9.735692,0,0,0,0,0,0,0.00
30729,3195243,0,0,0,0.254763,0.244124,9.750244,0,0,0,0,0,0,0.00
30731,3195283,0,0,0,0.278804,0.229875,9.754880,0,0,0,0,0,0,0.00
30733,3195323,0,0,0,0.273987,0.244213,9.759689,0,0,0,0,0,0,0.00
30735,3195362,0,0,0,0.254916,0.234550,9.764644,0,0,0,0,0,0,0.00
30737,3195402,0,0,0,0.259587,0.244147,9.755003,0,0,0,0,0,0,0.00
30739,3195442,0,0,0,0.254777,0.248912,9.755032,0,0,0,0,0,0,0.00
30741,3195481,0,0,0,0.264419,0.258532,9.769329,0,0,0,0,0,0,0.00
30742,3195501,0,0,0,0.259727,0.253722,9.778964,0,0,0,0,0,0,0.00
30745,3195561,0,0,0,0.259720,0.263296,9.783744,0,0,0,0,0,0,0.00
30746,3195581,0,0,0,0.255027,0.258487,9.793378,0,0,0,0,0,0,0.00
30749,3195620,0,0,0,0.264301,0.244169,9.745377,0,0,0,0,0,0,0.00
30751,3195660,0,0,0,0.254674,0.239338,9.735867,0,0,0,0,0,0,0.00
30753,3195700,0,0,0,0.274097,0.244213,9.774075,0,0,0,0,0,0,0.00
30755,3195739,0,0,0,0.269149,0.239405,9.750143,0,0,0,0,0,0,0.00
30757,3195779,0,0,0,0.259580,0.253722,9.759783,0,0,0,0,0,0,0.00
30759,3195819,0,0,0,0.259727,0.253722,9.778964,0,0,0,0,0,0,0.00
30761,3195859,0,0,0,0.249990,0.248890,9.755068,0,0,0,0,0,0,0.00
30763,3195898,0,0,0,0.254733,0.234550,9.740668,0,0,0,0,0,0,0.00
30765,3195938,0,0,0,0.235853,0.239249,9.779169,0,0,0,0,0,0,0.00
30767,3195978,0,0,0,0.259690,0.253722,9.774168,0,0,0,0,0,0,0.00
30769,3196007,0.254421,0.247839,9.768532,0,0,0,-0.128270,0.679447,-0.586546,3.155406,-2.616330,-11.093209,28.52
30772,3196057,0,0,0,0.254857,0.239338,9.759842,0,0,0,0,0,0,0.00
30773,3196077,0,0,0,0.259426,0.263296,9.745382,0,0,0,0,0,0,0.00
30775,3196117,0,0,0,0.273892,0.249001,9.750092,0,0,0,0,0,0,0.00
30777,3196156,0,0,0,0.269280,0.234617,9.764535,0,0,0,0,0,0,0.00
30779,3196196,0,0,0,0.269193,0.253766,9.764505,0,0,0,0,0,0,0.00
30781,3196236,0,0,0,0.254974,0.229763,9.769446,0,0,0,0,0,0,0.00
30783,3196275,0,0,0,0.249821,0.253677,9.735880,0,0,0,0,0,0,0.00
30785,3196315,0,0,0,0.288182,0.249067,9.740392,0,0,0,0,0,0,0.00
30789,3196394,0,0,0,0.259661,0.244147,9.764593,0,0,0,0,0,0,0.00
30792,3196434,0,0,0,0.249909,0.258465,9.750257,0,0,0,0,0,0,0.00
30794,3196474,0,0,0,0.245334,0.244081,9.769497,0,0,0,0,0,0,0.00
30796,3196513,0,0,0,0.273936,0.239427,9.750107,0,0,0,0,0,0,0.00
30798,3196553,0,0,0,0.273870,0.229852,9.735736,0,0,0,0,0,0,0.00
30800,3196593,0,0,0,0.269434,0.225043,9.778936,0,0,0,0,0,0,0.00
30801,3196613,0,0,0,0.255004,0.239338,9.779023,0,0,0,0,0,0,0.00
30804,3196672,0,0,0,0.269053,0.244191,9.740545,0,0,0,0,0,0,0.00
30805,3196692,0,0,0,0.249968,0.253677,9.755060,0,0,0,0,0,0,0.00
30807,3196732,0,0,0,0.269199,0.244191,9.759726,0,0,0,0,0,0,0.00
30809,3196772,0,0,0,0.264273,0.258532,9.750149,0,0,0,0,0,0,0.00
30811,3196811,0,0,0,0.250151,0.253677,9.779037,0,0,0,0,0,0,0.00
30814,3196851,0,0,0,0.249836,0.282400,9.755015,0,0,0,0,0,0,0.00
30816,3196891,0,0,0,0.268980,0.244191,9.730955,0,0,0,0,0,0,0.00
30818,3196930,0,0,0,0.269442,0.239405,9.788505,0,0,0,0,0,0,0.00
30820,3196970,0,0,0,0.269046,0.229830,9.730977,0,0,0,0,0,0,0.00
30822,3197010,0,0,0,0.278935,0.225088,9.769273,0,0,0,0,0,0,0.00
30824,3197049,0,0,0,0.264784,0.210660,9.788586,0,0,0,0,0,0,0.00
30826,3197089,0,0,0,0.259573,0.239361,9.750216,0,0,0,0,0,0,0.00
30828,3197129,0,0,0,0.250004,0.253677,9.759855,0,0,0,0,0,0,0.00
30830,3197168,0,0,0,0.259645,0.239361,9.759806,0,0,0,0,0,0,0.00
30832,3197208,0,0,0,0.264360,0.263318,9.764526,0,0,0,0,0,0,0.00
30835,3197248,0,0,0,0.240340,0.248845,9.745551,0,0,0,0,0,0,0.00
30837,3197288,0,0,0,0.254682,0.253699,9.745434,0,0,0,0,0,0,0.00
30839,3197327,0,0,0,0.259462,0.239361,9.735830,0,0,0,0,0,0,0.00
30840,3197347,0,0,0,0.283585,0.239471,9.759624,0,0,0,0,0,0,0.00
30842,3197387,0,0,0,0.259661,0.244147,9.764593,0,0,0,0,0,0,0.00
30844,3197426,0,0,0,0.250033,0.239316,9.755083,0,0,0,0,0,0,0.00
30846,3197466,0,0,0,0.278877,0.229875,9.764470,0,0,0,0,0,0,0.00
30848,3197506,0,0,0,0.269177,0.248979,9.759718,0,0,0,0,0,0,0.00
30850,3197546,0,0,0,0.264484,0.244169,9.769352,0,0,0,0,0,0,0.00
30852,3197585,0,0,0,0.259536,0.263296,9.759768,0,0,0,0,0,0,0.00
30855,3197625,0,0,0,0.264360,0.263318,9.764526,0,0,0,0,0,0,0.00
30857,3197665,0,0,0,0.254777,0.248912,9.755032,0,0,0,0,0,0,0.00
30859,3197704,0,0,0,0.264214,0.263318,9.745346,0,0,0,0,0,0,0.00
30861,3197744,0,0,0,0.245282,0.239294,9.759914,0,0,0,0,0,0,0.00
30863,3197784,0,0,0,0.273994,0.234639,9.754909,0,0,0,0,0,0,0.00
30865,3197823,0,0,0,0.278833,0.239450,9.764456,0,0,0,0,0,0,0.00
30867,3197863,0,0,0,0.250107,0.239316,9.764673,0,0,0,0,0,0,0.00
30869,3197903,0,0,0,0.264273,0.258532,9.750149,0,0,0,0,0,0,0.00
30871,3197942,0,0,0,0.264484,0.244169,9.769352,0,0,0,0,0,0,0.00
30873,3197982,0,0,0,0.278643,0.249023,9.745260,0,0,0,0,0,0,0.00
30875,3198007,0.269878,0.239308,9.755935,0,0,0,-0.128280,0.677933,-0.585061,3.154555,-2.616215,-11.095123,28.52
30878,3198062,0,0,0,0.254675,0.263273,9.750214,0,0,0,0,0,0,0.00
30880,3198101,0,0,0,0.269032,0.272915,9.754886,0,0,0,0,0,0,0.00
30882,3198141,0,0,0,0.269479,0.239405,9.793300,0,0,0,0,0,0,0.00
30884,3198181,0,0,0,0.259543,0.229786,9.740640,0,0,0,0,0,0,0.00
30885,3198201,0,0,0,0.259375,0.258510,9.735800,0,0,0,0,0,0,0.00
30887,3198240,0,0,0,0.274038,0.225065,9.754924,0,0,0,0,0,0,0.00
30889,3198280,0,0,0,0.264411,0.244169,9.759762,0,0,0,0,0,0,0.00
30891,3198320,0,0,0,0.274016,0.229852,9.754916,0,0,0,0,0,0,0.00
30895,3198399,0,0,0,0.283475,0.263407,9.759586,0,0,0,0,0,0,0.00
30898,3198439,0,0,0,0.269199,0.244191,9.759726,0,0,0,0,0,0,0.00
30900,3198478,0,0,0,0.259602,0.248935,9.759790,0,0,0,0,0,0,0.00
30902,3198518,0,0,0,0.254638,0.263273,9.745419,0,0,0,0,0,0,0.00
30904,3198558,0,0,0,0.259675,0.248935,9.769381,0,0,0,0,0,0,0.00
30906,3198597,0,0,0,0.259316,0.263296,9.730997,0,0,0,0,0,0,0.00
30908,3198637,0,0,0,0.254777,0.248912,9.755032,0,0,0,0,0,0,0.00
30910,3198677,0,0,0,0.269105,0.248979,9.750128,0,0,0,0,0,0,0.00
30912,3198717,0,0,0,0.259719,0.239361,9.769396,0,0,0,0,0,0,0.00
30914,3198756,0,0,0,0.288372,0.239493,9.759587,0,0,0,0,0,0,0.00
30916,3198796,0,0,0,0.288372,0.239493,9.759587,0,0,0,0,0,0,0.00
30919,3198836,0,0,0,0.269251,0.248979,9.769308,0,0,0,0,0,0,0.00
30921,3198875,0,0,0,0.250071,0.263251,9.774225,0,0,0,0,0,0,0.00
30923,3198915,0,0,0,0.254594,0.272848,9.745404,0,0,0,0,0,0,0.00
30924,3198935,0,0,0,0.268980,0.244191,9.730955,0,0,0,0,0,0,0.00
30926,3198975,0,0,0,0.259764,0.253722,9.783759,0,0,0,0,0,0,0.00
30928,3199014,0,0,0,0.259536,0.239361,9.745420,0,0,0,0,0,0,0.00
30930,3199054,0,0,0,0.269229,0.253766,9.769300,0,0,0,0,0,0,0.00
30932,3199094,0,0,0,0.254747,0.239338,9.745457,0,0,0,0,0,0,0.00
30934,3199133,0,0,0,0.269265,0.229830,9.759748,0,0,0,0,0,0,0.00
30936,3199173,0,0,0,0.283556,0.229897,9.750049,0,0,0,0,0,0,0.00
30938,3199213,0,0,0,0.255063,0.234550,9.783825,0,0,0,0,0,0,0.00
30941,3199252,0,0,0,0.259631,0.234573,9.755017,0,0,0,0,0,0,0.00
30943,3199292,0,0,0,0.273907,0.253788,9.754879,0,0,0,0,0,0,0.00
30945,3199332,0,0,0,0.240523,0.248845,9.769526,0,0,0,0,0,0,0.00
30947,3199371,0,0,0,0.250107,0.263251,9.779021,0,0,0,0,0,0,0.00
30949,3199411,0,0,0,0.235443,0.248823,9.731202,0,0,0,0,0,0,0.00
30951,3199451,0,0,0,0.250070,0.239316,9.759878,0,0,0,0,0,0,0.00
30953,3199491,0,0,0,0.264243,0.248957,9.740574,0,0,0,0,0,0,0.00
30955,3199530,0,0,0,0.255232,0.229763,9.803013,0,0,0,0,0,0,0.00
30957,3199570,0,0,0,0.264265,0.244169,9.740582,0,0,0,0,0,0,0.00
30959,3199610,0,0,0,0.283724,0.225110,9.769237,0,0,0,0,0,0,0.00
30962,3199649,0,0,0,0.278716,0.249023,9.754850,0,0,0,0,0,0,0.00
30964,3199689,0,0,0,0.297816,0.268261,9.759469,0,0,0,0,0,0,0.00
30965,3199709,0,0,0,0.288123,0.253855,9.735589,0,0,0,0,0,0,0.00
30968,3199768,0,0,0,0.259734,0.268084,9.788531,0,0,0,0,0,0,0.00
30969,3199788,0,0,0,0.259639,0.248935,9.764585,0,0,0,0,0,0,0.00
30971,3199828,0,0,0,0.240458,0.239271,9.755157,0,0,0,0,0,0,0.00
30973,3199868,0,0,0,0.240458,0.239271,9.755157,0,0,0,0,0,0,0.00
30975,3199907,0,0,0,0.259778,0.234573,9.774198,0,0,0,0,0,0,0.00
30977,3199947,0,0,0,0.250063,0.248890,9.764658,0,0,0,0,0,0,0.00
30979,3199987,0,0,0,0.274002,0.225065,9.750129,0,0,0,0,0,0,0.00
30982,3200026,0,0,0,0.278833,0.239450,9.764456,0,0,0,0,0,0,0.00
30984,3200066,0,0,0,0.288328,0.249067,9.759572,0,0,0,0,0,0,0.00
30986,3200106,0,0,0,0.297765,0.239538,9.735539,0,0,0,0,0,0,0.00
30988,3200146,0,0,0,0.274054,0.253788,9.774059,0,0,0,0,0,0,0.00
30990,3200185,0,0,0,0.274105,0.258575,9.783643,0,0,0,0,0,0,0.00
30992,3200225,0,0,0,0.259617,0.253722,9.764578,0,0,0,0,0,0,0.00
30994,3200265,0,0,0,0.259683,0.239361,9.764601,0,0,0,0,0,0,0.00
30996,3200304,0,0,0,0.245180,0.253655,9.755096,0,0,0,0,0,0,0.00
30998,3200344,0,0,0,0.249946,0.258465,9.755053,0,0,0,0,0,0,0.00
30999,3200364,0,0,0,0.245216,0.229719,9.745543,0,0,0,0,0,0,0.00
31001,3200404,0,0,0,0.259763,0.229786,9.769410,0,0,0,0,0,0,0.00
31004,3200443,0,0,0,0.269105,0.248979,9.750128,0,0,0,0,0,0,0.00
31006,3200483,0,0,0,0.273980,0.253788,9.764469,0,0,0,0,0,0,0.00
31008,3200523,0,0,0,0.264426,0.248957,9.764549,0,0,0,0,0,0,0.00
31010,3200562,0,0,0,0.283446,0.253833,9.750011,0,0,0,0,0,0,0.00
31012,3200602,0,0,0,0.264462,0.248957,9.769344,0,0,0,0,0,0,0.00
31014,3200642,0,0,0,0.259440,0.244147,9.735823,0,0,0,0,0,0,0.00
31016,3200681,0,0,0,0.240450,0.248845,9.759936,0,0,0,0,0,0,0.00
31018,3200721,0,0,0,0.240523,0.248845,9.769526,0,0,0,0,0,0,0.00
31020,3200761,0,0,0,0.240157,0.248845,9.721576,0,0,0,0,0,0,0.00
31022,3200800,0,0,0,0.259624,0.244147,9.759798,0,0,0,0,0,0,0.00
31025,3200840,0,0,0,0.254946,0.244124,9.774220,0,0,0,0,0,0,0.00
31027,3200880,0,0,0,0.283556,0.229897,9.750049,0,0,0,0,0,0,0.00
31029,3200920,0,0,0,0.288409,0.239493,9.764382,0,0,0,0,0,0,0.00
31031,3200959,0,0,0,0.278826,0.249023,9.769236,0,0,0,0,0,0,0.00
31033,3200999,0,0,0,0.269002,0.263340,9.745310,0,0,0,0,0,0,0.00
31035,3201039,0,0,0,0.273965,0.249001,9.759682,0,0,0,0,0,0,0.00
31037,3201078,0,0,0,0.249953,0.248890,9.750273,0,0,0,0,0,0,0.00
31039,3201118,0,0,0,0.249916,0.248890,9.745478,0,0,0,0,0,0,0.00
31041,3201158,0,0,0,0.240509,0.244058,9.764739,0,0,0,0,0,0,0.00
31043,3201197,0,0,0,0.240311,0.239271,9.735976,0,0,0,0,0,0,0.00
31046,3201237,0,0,0,0.250077,0.229741,9.755097,0,0,0,0,0,0,0.00
31047,3201257,0,0,0,0.264470,0.239383,9.764565,0,0,0,0,0,0,0.00
31049,3201297,0,0,0,0.264470,0.239383,9.764565,0,0,0,0,0,0,0.00
31051,3201336,0,0,0,0.278738,0.244236,9.754858,0,0,0,0,0,0,0.00
31053,3201376,0,0,0,0.288328,0.249067,9.759572,0,0,0,0,0,0,0.00
31055,3201416,0,0,0,0.269199,0.244191,9.759726,0,0,0,0,0,0,0.00
31057,3201455,0,0,0,0.254674,0.239338,9.735867,0,0,0,0,0,0,0.00
31059,3201495,0,0,0,0.245444,0.244081,9.783883,0,0,0,0,0,0,0.00
31061,3201535,0,0,0,0.240443,0.258420,9.764716,0,0,0,0,0,0,0.00
31063,3201575,0,0,0,0.245078,0.268017,9.750278,0,0,0,0,0,0,0.00
31065,3201614,0,0,0,0.235758,0.244036,9.769570,0,0,0,0,0,0,0.00
31068,3201654,0,0,0,0.250004,0.229741,9.745507,0,0,0,0,0,0,0.00
31070,3201694,0,0,0,0.273848,0.234639,9.735728,0,0,0,0,0,0,0.00
31072,3201733,0,0,0,0.269332,0.239405,9.774118,0,0,0,0,0,0,0.00
31074,3201773,0,0,0,0.283431,0.249045,9.745224,0,0,0,0,0,0,0.00
31076,3201813,0,0,0,0.288278,0.244280,9.749990,0,0,0,0,0,0,0.00
31078,3201852,0,0,0,0.283651,0.249045,9.773994,0,0,0,0,0,0,0.00
31080,3201892,0,0,0,0.264506,0.239383,9.769360,0,0,0,0,0,0,0.00
31082,3201932,0,0,0,0.250041,0.253677,9.764650,0,0,0,0,0,0,0.00
31084,3201971,0,0,0,0.245254,0.253655,9.764687,0,0,0,0,0,0,0.00
31086,3202011,0,0,0,0.235414,0.263185,9.735974,0,0,0,0,0,0,0.00
31089,3202051,0,0,0,0.250085,0.244102,9.764666,0,0,0,0,0,0,0.00
31091,3202091,0,0,0,0.259800,0.229786,9.774205,0,0,0,0,0,0,0.00
31092,3202110,0,0,0,0.264609,0.225021,9.774177,0,0,0,0,0,0,0.00
31094,3202150,0,0,0,0.278730,0.229875,9.745290,0,0,0,0,0,0,0.00
31096,3202190,0,0,0,0.293344,0.239516,9.783527,0,0,0,0,0,0,0.00
31098,3202229,0,0,0,0.293043,0.225155,9.735598,0,0,0,0,0,0,0.00
31100,3202269,0,0,0,0.269171,0.234617,9.750150,0,0,0,0,0,0,0.00
31102,3202309,0,0,0,0.264742,0.244169,9.802918,0,0,0,0,0,0,0.00
31104,3202349,0,0,0,0.269061,0.258554,9.750113,0,0,0,0,0,0,0.00
31106,3202388,0,0,0,0.244997,0.253655,9.731121,0,0,0,0,0,0,0.00
31109,3202428,0,0,0,0.230919,0.263163,9.774371,0,0,0,0,0,0,0.00
31111,3202468,0,0,0,0.259426,0.239361,9.731035,0,0,0,0,0,0,0.00
31113,3202507,0,0,0,0.235750,0.229674,9.760002,0,0,0,0,0,0,0.00
31115,3202547,0,0,0,0.259770,0.244147,9.778979,0,0,0,0,0,0,0.00
31117,3202587,0,0,0,0.283483,0.229897,9.740458,0,0,0,0,0,0,0.00
31119,3202626,0,0,0,0.283600,0.244258,9.764412,0,0,0,0,0,0,0.00
31121,3202666,0,0,0,0.278680,0.249023,9.750055,0,0,0,0,0,0,0.00
31123,3202706,0,0,0,0.273929,0.249001,9.754887,0,0,0,0,0,0,0.00
31125,3202746,0,0,0,0.274046,0.239427,9.764492,0,0,0,0,0,0,0.00
31127,3202785,0,0,0,0.264397,0.263318,9.769321,0,0,0,0,0,0,0.00
31129,3202807,0.265808,0.245903,9.769426,0,0,0,-0.128300,0.679417,-0.584042,3.155406,-2.615865,-11.097009,28.52
31132,3202865,0,0,0,0.250180,0.239316,9.774263,0,0,0,0,0,0,0.00
31134,3202904,0,0,0,0.245041,0.244081,9.731136,0,0,0,0,0,0,0.00
31136,3202944,0,0,0,0.245421,0.224933,9.769526,0,0,0,0,0,0,0.00
31138,3202984,0,0,0,0.269273,0.244191,9.769316,0,0,0,0,0,0,0.00
31139,3203004,0,0,0,0.269221,0.239405,9.759733,0,0,0,0,0,0,0.00
31141,3203043,0,0,0,0.269302,0.229830,9.764543,0,0,0,0,0,0,0.00
31143,3203083,0,0,0,0.283490,0.244258,9.750027,0,0,0,0,0,0,0.00
31145,3203123,0,0,0,0.288439,0.249067,9.773957,0,0,0,0,0,0,0.00
31149,3203202,0,0,0,0.278782,0.258598,9.769220,0,0,0,0,0,0,0.00
31152,3203242,0,0,0,0.240362,0.267994,9.759906,0,0,0,0,0,0,0.00
31154,3203281,0,0,0,0.240362,0.244058,9.745559,0,0,0,0,0,0,0.00
31156,3203321,0,0,0,0.235670,0.239249,9.755193,0,0,0,0,0,0,0.00
31158,3203361,0,0,0,0.250129,0.234529,9.764680,0,0,0,0,0,0,0.00
31160,3203400,0,0,0,0.264317,0.248957,9.750164,0,0,0,0,0,0,0.00
31162,3203440,0,0,0,0.279032,0.244236,9.793220,0,0,0,0,0,0,0.00
31164,3203480,0,0,0,0.278665,0.244236,9.745268,0,0,0,0,0,0,0.00
31166,3203520,0,0,0,0.283431,0.249045,9.745224,0,0,0,0,0,0,0.00
31168,3203559,0,0,0,0.264433,0.239383,9.759769,0,0,0,0,0,0,0.00
31170,3203599,0,0,0,0.269274,0.268127,9.783664,0,0,0,0,0,0,0.00
31173,3203639,0,0,0,0.264367,0.253744,9.759747,0,0,0,0,0,0,0.00
31174,3203658,0,0,0,0.249866,0.268039,9.750242,0,0,0,0,0,0,0.00
31176,3203698,0,0,0,0.230838,0.248801,9.755214,0,0,0,0,0,0,0.00
31178,3203738,0,0,0,0.259697,0.220212,9.755040,0,0,0,0,0,0,0.00
31180,3203778,0,0,0,0.254785,0.239338,9.750252,0,0,0,0,0,0,0.00
31182,3203817,0,0,0,0.250165,0.234529,9.769475,0,0,0,0,0,0,0.00
31184,3203857,0,0,0,0.264375,0.244169,9.754967,0,0,0,0,0,0,0.00
31186,3203897,0,0,0,0.288467,0.234706,9.769184,0,0,0,0,0,0,0.00
31188,3203936,0,0,0,0.288372,0.239493,9.759587,0,0,0,0,0,0,0.00
31190,3203976,0,0,0,0.269024,0.258554,9.745317,0,0,0,0,0,0,0.00
31192,3204007,0.282087,0.240293,9.758841,0,0,0,-0.128807,0.681410,-0.584024,3.156228,-2.617597,-11.096931,28.52
31195,3204055,0,0,0,0.254755,0.253699,9.755024,0,0,0,0,0,0,0.00
31197,3204095,0,0,0,0.264470,0.263318,9.778913,0,0,0,0,0,0,0.00
31199,3204135,0,0,0,0.235684,0.244036,9.759980,0,0,0,0,0,0,0.00
31201,3204175,0,0,0,0.249784,0.253677,9.731085,0,0,0,0,0,0,0.00
31203,3204214,0,0,0,0.245166,0.248868,9.750309,0,0,0,0,0,0,0.00
31205,3204254,0,0,0,0.259792,0.239361,9.778987,0,0,0,0,0,0,0.00
31207,3204294,0,0,0,0.273855,0.249001,9.745296,0,0,0,0,0,0,0.00
31209,3204333,0,0,0,0.278863,0.249023,9.774031,0,0,0,0,0,0,0.00
31213,3204413,0,0,0,0.293168,0.253878,9.769118,0,0,0,0,0,0,0.00
31216,3204452,0,0,0,0.273833,0.253788,9.745289,0,0,0,0,0,0,0.00
31217,3204472,0,0,0,0.264470,0.239383,9.764565,0,0,0,0,0,0,0.00
31219,3204512,0,0,0,0.249865,0.244102,9.735895,0,0,0,0,0,0,0.00
31221,3204552,0,0,0,0.254835,0.244124,9.759834,0,0,0,0,0,0,0.00
31223,3204591,0,0,0,0.250114,0.244091,9.769474,0,0,0,0,0,0,0.00
31225,3204631,0,0,0,0.254939,0.244113,9.774233,0,0,0,0,0,0,0.00
31227,3204671,0,0,0,0.259617,0.244136,9.759811,0,0,0,0,0,0,0.00
31229,3204710,0,0,0,0.269105,0.263329,9.759708,0,0,0,0,0,0,0.00
31231,3204750,0,0,0,0.288557,0.253843,9.793143,0,0,0,0,0,0,0.00
31233,3204790,0,0,0,0.297956,0.244313,9.764316,0,0,0,0,0,0,0.00
31236,3204829,0,0,0,0.278431,0.253799,9.721290,0,0,0,0,0,0,0.00
31238,3204869,0,0,0,0.259617,0.244136,9.759811,0,0,0,0,0,0,0.00
31240,3204909,0,0,0,0.269127,0.258541,9.759716,0,0,0,0,0,0,0.00
31242,3204949,0,0,0,0.254770,0.272836,9.769393,0,0,0,0,0,0,0.00
31244,3204988,0,0,0,0.230853,0.244002,9.755235,0,0,0,0,0,0,0.00
31246,3205028,0,0,0,0.254829,0.244113,9.759848,0,0,0,0,0,0,0.00
31248,3205068,0,0,0,0.250012,0.234517,9.750307,0,0,0,0,0,0,0.00
31250,3205107,0,0,0,0.249903,0.258452,9.750270,0,0,0,0,0,0,0.00
31252,3205147,0,0,0,0.269456,0.234606,9.788524,0,0,0,0,0,0,0.00
31254,3205187,0,0,0,0.288381,0.244268,9.764388,0,0,0,0,0,0,0.00
31256,3205207,0.273892,0.246387,9.775332,0,0,0,-0.127795,0.679929,-0.585034,3.157471,-2.618128,-11.095749,28.53
31259,3205266,0,0,0,0.288301,0.253843,9.759578,0,0,0,0,0,0,0.00
31260,3205286,0,0,0,0.283710,0.234673,9.774030,0,0,0,0,0,0,0.00
31262,3205326,0,0,0,0.269280,0.248967,9.774117,0,0,0,0,0,0,0.00
31264,3205365,0,0,0,0.254792,0.244113,9.755053,0,0,0,0,0,0,0.00
31266,3205405,0,0,0,0.230831,0.248790,9.755227,0,0,0,0,0,0,0.00
31268,3205445,0,0,0,0.245385,0.239283,9.774313,0,0,0,0,0,0,0.00
31270,3205484,0,0,0,0.235589,0.239238,9.745615,0,0,0,0,0,0,0.00
31272,3205524,0,0,0,0.250225,0.244091,9.783859,0,0,0,0,0,0,0.00
31276,3205604,0,0,0,0.259689,0.244136,9.769402,0,0,0,0,0,0,0.00
31279,3205643,0,0,0,0.273886,0.248989,9.750104,0,0,0,0,0,0,0.00
31281,3205683,0,0,0,0.288176,0.249056,9.740404,0,0,0,0,0,0,0.00
31283,3205723,0,0,0,0.278753,0.239438,9.754879,0,0,0,0,0,0,0.00
31285,3205762,0,0,0,0.278988,0.244225,9.788437,0,0,0,0,0,0,0.00
31287,3205802,0,0,0,0.259345,0.263285,9.735805,0,0,0,0,0,0,0.00
31289,3205842,0,0,0,0.269171,0.248967,9.759731,0,0,0,0,0,0,0.00
31291,3205881,0,0,0,0.226029,0.243980,9.750475,0,0,0,0,0,0,0.00
31292,3205901,0,0,0,0.230684,0.248790,9.736046,0,0,0,0,0,0,0.00
31294,3205941,0,0,0,0.240554,0.248834,9.774335,0,0,0,0,0,0,0.00
31296,3205981,0,0,0,0.235853,0.253599,9.788749,0,0,0,0,0,0,0.00
31299,3206020,0,0,0,0.278893,0.249012,9.778839,0,0,0,0,0,0,0.00
31301,3206060,0,0,0,0.278584,0.244225,9.735690,0,0,0,0,0,0,0.00
31303,3206100,0,0,0,0.293073,0.249079,9.754754,0,0,0,0,0,0,0.00
31305,3206139,0,0,0,0.288403,0.239482,9.764396,0,0,0,0,0,0,0.00
31307,3206179,0,0,0,0.283614,0.239460,9.764433,0,0,0,0,0,0,0.00
31309,3206219,0,0,0,0.254968,0.229752,9.769460,0,0,0,0,0,0,0.00
31311,3206258,0,0,0,0.245268,0.248857,9.764708,0,0,0,0,0,0,0.00
31313,3206298,0,0,0,0.235553,0.239238,9.740820,0,0,0,0,0,0,0.00
31315,3206338,0,0,0,0.235612,0.258386,9.759971,0,0,0,0,0,0,0.00
31317,3206378,0,0,0,0.245246,0.253644,9.764700,0,0,0,0,0,0,0.00
31319,3206407,0.238073,0.249346,9.758112,0,0,0,-0.128783,0.680431,-0.585538,3.159338,-2.618469,-11.092949,28.53
31322,3206457,0,0,0,0.269032,0.263329,9.750117,0,0,0,0,0,0,0.00
31324,3206497,0,0,0,0.278731,0.244225,9.754871,0,0,0,0,0,0,0.00
31326,3206536,0,0,0,0.274113,0.239415,9.774096,0,0,0,0,0,0,0.00
31328,3206576,0,0,0,0.293132,0.244291,9.759557,0,0,0,0,0,0,0.00
31330,3206616,0,0,0,0.269193,0.244180,9.759739,0,0,0,0,0,0,0.00
31332,3206655,0,0,0,0.240701,0.248834,9.793515,0,0,0,0,0,0,0.00
31334,3206695,0,0,0,0.235494,0.244024,9.736017,0,0,0,0,0,0,0.00
31336,3206735,0,0,0,0.230451,0.267939,9.716835,0,0,0,0,0,0,0.00
31340,3206814,0,0,0,0.259697,0.258497,9.778969,0,0,0,0,0,0,0.00
31343,3206854,0,0,0,0.269295,0.253755,9.778904,0,0,0,0,0,0,0.00
31344,3206874,0,0,0,0.274083,0.253777,9.778868,0,0,0,0,0,0,0.00
31346,3206913,0,0,0,0.283578,0.239460,9.759638,0,0,0,0,0,0,0.00
31348,3206953,0,0,0,0.288204,0.234694,9.735631,0,0,0,0,0,0,0.00
31350,3206993,0,0,0,0.297986,0.253888,9.773890,0,0,0,0,0,0,0.00
31352,3207033,0,0,0,0.283672,0.234673,9.769235,0,0,0,0,0,0,0.00
31354,3207072,0,0,0,0.250042,0.244091,9.759884,0,0,0,0,0,0,0.00
31356,3207112,0,0,0,0.226183,0.234406,9.764875,0,0,0,0,0,0,0.00
31358,3207152,0,0,0,0.235567,0.244024,9.745607,0,0,0,0,0,0,0.00
31360,3207191,0,0,0,0.264434,0.253733,9.769350,0,0,0,0,0,0,0.00
31362,3207207,0.242085,0.247965,9.751534,0,0,0,-0.127286,0.680947,-0.586520,3.161905,-2.617816,-11.092802,28.53
31365,3207271,0,0,0,0.245077,0.258430,9.745511,0,0,0,0,0,0,0.00
31367,3207310,0,0,0,0.288381,0.244268,9.764388,0,0,0,0,0,0,0.00
31369,3207350,0,0,0,0.283849,0.244246,9.797991,0,0,0,0,0,0,0.00
31371,3207390,0,0,0,0.288168,0.234694,9.730836,0,0,0,0,0,0,0.00
31372,3207410,0,0,0,0.288359,0.225120,9.750031,0,0,0,0,0,0,0.00
31375,3207469,0,0,0,0.264668,0.234584,9.788560,0,0,0,0,0,0,0.00
31376,3207489,0,0,0,0.254844,0.248900,9.764635,0,0,0,0,0,0,0.00
31378,3207529,0,0,0,0.264346,0.225009,9.740623,0,0,0,0,0,0,0.00
31382,3207608,0,0,0,0.225883,0.267917,9.745642,0,0,0,0,0,0,0.00
31385,3207648,0,0,0,0.235662,0.263173,9.769553,0,0,0,0,0,0,0.00
31387,3207687,0,0,0,0.255005,0.253688,9.788603,0,0,0,0,0,0,0.00
31389,3207727,0,0,0,0.259506,0.244136,9.745425,0,0,0,0,0,0,0.00
31391,3207767,0,0,0,0.312606,0.230019,9.792999,0,0,0,0,0,0,0.00
31393,3207807,0,0,0,0.312056,0.230019,9.721072,0,0,0,0,0,0,0.00
31395,3207846,0,0,0,0.274010,0.229840,9.754930,0,0,0,0,0,0,0.00
31396,3207866,0,0,0,0.283666,0.220311,9.759667,0,0,0,0,0,0,0.00
31398,3207906,0,0,0,0.283578,0.239460,9.759638,0,0,0,0,0,0,0.00
31400,3207945,0,0,0,0.264199,0.248945,9.735791,0,0,0,0,0,0,0.00
31402,3207985,0,0,0,0.230956,0.253577,9.774400,0,0,0,0,0,0,0.00
31405,3208025,0,0,0,0.240385,0.253621,9.755147,0,0,0,0,0,0,0.00
31407,3208065,0,0,0,0.240188,0.272769,9.740731,0,0,0,0,0,0,0.00
31409,3208104,0,0,0,0.226359,0.243980,9.793632,0,0,0,0,0,0,0.00
31411,3208144,0,0,0,0.273820,0.263350,9.750081,0,0,0,0,0,0,0.00
31413,3208184,0,0,0,0.283717,0.249034,9.783598,0,0,0,0,0,0,0.00
31415,3208223,0,0,0,0.273892,0.239415,9.745324,0,0,0,0,0,0,0.00
31417,3208263,0,0,0,0.278592,0.234651,9.730909,0,0,0,0,0,0,0.00
31419,3208303,0,0,0,0.274266,0.229840,9.788495,0,0,0,0,0,0,0.00
31421,3208342,0,0,0,0.254902,0.244113,9.769438,0,0,0,0,0,0,0.00
31423,3208382,0,0,0,0.235846,0.239238,9.779181,0,0,0,0,0,0,0.00
31425,3208407,0.255461,0.238745,9.768209,0,0,0,-0.128762,0.679950,-0.587045,3.162577,-2.619212,-11.091297,28.53
31428,3208462,0,0,0,0.245019,0.263218,9.740708,0,0,0,0,0,0,0.00
31430,3208501,0,0,0,0.221498,0.243958,9.784078,0,0,0,0,0,0,0.00
31432,3208541,0,0,0,0.269346,0.234606,9.774138,0,0,0,0,0,0,0.00
31434,3208581,0,0,0,0.273959,0.248989,9.759695,0,0,0,0,0,0,0.00
31435,3208600,0,0,0,0.283607,0.249034,9.769213,0,0,0,0,0,0,0.00
31438,3208660,0,0,0,0.283592,0.244246,9.764425,0,0,0,0,0,0,0.00
31439,3208680,0,0,0,0.297956,0.220378,9.749967,0,0,0,0,0,0,0.00
31441,3208720,0,0,0,0.279032,0.234651,9.788451,0,0,0,0,0,0,0.00
31445,3208799,0,0,0,0.269177,0.239393,9.754951,0,0,0,0,0,0,0.00
31448,3208839,0,0,0,0.226095,0.253555,9.764846,0,0,0,0,0,0,0.00
31450,3208878,0,0,0,0.230626,0.253577,9.731243,0,0,0,0,0,0,0.00
31452,3208918,0,0,0,0.240532,0.253621,9.774327,0,0,0,0,0,0,0.00
31454,3208958,0,0,0,0.254953,0.248900,9.779020,0,0,0,0,0,0,0.00
31456,3208997,0,0,0,0.240319,0.244046,9.740776,0,0,0,0,0,0,0.00
31458,3209037,0,0,0,0.269449,0.244180,9.793304,0,0,0,0,0,0,0.00
31459,3209057,0,0,0,0.298052,0.239527,9.773913,0,0,0,0,0,0,0.00
31461,3209097,0,0,0,0.302678,0.234761,9.749907,0,0,0,0,0,0,0.00
31463,3209136,0,0,0,0.288556,0.229907,9.778795,0,0,0,0,0,0,0.00
31465,3209176,0,0,0,0.288322,0.249056,9.759585,0,0,0,0,0,0,0.00
31468,3209216,0,0,0,0.264215,0.253733,9.740579,0,0,0,0,0,0,0.00
31470,3209255,0,0,0,0.254683,0.244113,9.740666,0,0,0,0,0,0,0.00
31472,3209295,0,0,0,0.254975,0.244113,9.779028,0,0,0,0,0,0,0.00
31474,3209335,0,0,0,0.240378,0.263195,9.759927,0,0,0,0,0,0,0.00
31476,3209374,0,0,0,0.250049,0.258452,9.769451,0,0,0,0,0,0,0.00
31478,3209414,0,0,0,0.259602,0.263285,9.769371,0,0,0,0,0,0,0.00
31480,3209454,0,0,0,0.278769,0.244225,9.759666,0,0,0,0,0,0,0.00
31482,3209494,0,0,0,0.293198,0.229930,9.759579,0,0,0,0,0,0,0.00
31484,3209533,0,0,0,0.278907,0.229863,9.769279,0,0,0,0,0,0,0.00
31486,3209573,0,0,0,0.278871,0.229863,9.764483,0,0,0,0,0,0,0.00
31488,3209613,0,0,0,0.293168,0.244291,9.764352,0,0,0,0,0,0,0.00
31491,3209652,0,0,0,0.259689,0.244136,9.769402,0,0,0,0,0,0,0.00
31493,3209692,0,0,0,0.245121,0.248857,9.745526,0,0,0,0,0,0,0.00
31495,3209732,0,0,0,0.225853,0.258342,9.736067,0,0,0,0,0,0,0.00
31497,3209771,0,0,0,0.250217,0.253666,9.788639,0,0,0,0,0,0,0.00
31499,3209811,0,0,0,0.240422,0.253621,9.759942,0,0,0,0,0,0,0.00
31501,3209851,0,0,0,0.254814,0.239326,9.755060,0,0,0,0,0,0,0.00
31503,3209891,0,0,0,0.264265,0.234584,9.735813,0,0,0,0,0,0,0.00
31504,3209910,0,0,0,0.288381,0.244268,9.764388,0,0,0,0,0,0,0.00
31507,3209970,0,0,0,0.302868,0.225186,9.769104,0,0,0,0,0,0,0.00
31508,3209990,0,0,0,0.293226,0.239505,9.769155,0,0,0,0,0,0,0.00
31511,3210029,0,0,0,0.269258,0.229818,9.759761,0,0,0,0,0,0,0.00
31513,3210069,0,0,0,0.269199,0.234606,9.754958,0,0,0,0,0,0,0.00
31515,3210109,0,0,0,0.250020,0.248878,9.759876,0,0,0,0,0,0,0.00
31517,3210149,0,0,0,0.240305,0.263195,9.750336,0,0,0,0,0,0,0.00
31519,3210188,0,0,0,0.240400,0.258408,9.759934,0,0,0,0,0,0,0.00
31521,3210228,0,0,0,0.250078,0.268027,9.779026,0,0,0,0,0,0,0.00
31523,3210268,0,0,0,0.249887,0.253666,9.745482,0,0,0,0,0,0,0.00
31525,3210307,0,0,0,0.264463,0.239371,9.764578,0,0,0,0,0,0,0.00
31527,3210347,0,0,0,0.278769,0.244225,9.759666,0,0,0,0,0,0,0.00
31529,3210387,0,0,0,0.302876,0.239549,9.778672,0,0,0,0,0,0,0.00
31531,3210407,0.281656,0.237290,9.769169,0,0,0,-0.128296,0.680925,-0.585027,3.167949,-2.620141,-11.090425,28.53
31534,3210466,0,0,0,0.264258,0.244158,9.740594,0,0,0,0,0,0,0.00
31536,3210506,0,0,0,0.254983,0.234539,9.774247,0,0,0,0,0,0,0.00
31537,3210526,0,0,0,0.259661,0.234562,9.759826,0,0,0,0,0,0,0.00
31539,3210565,0,0,0,0.259675,0.239349,9.764614,0,0,0,0,0,0,0.00
31541,3210605,0,0,0,0.240422,0.253621,9.759942,0,0,0,0,0,0,0.00
31543,3210645,0,0,0,0.221299,0.263106,9.769662,0,0,0,0,0,0,0.00
31545,3210684,0,0,0,0.268921,0.263329,9.735732,0,0,0,0,0,0,0.00
31547,3210724,0,0,0,0.278900,0.239438,9.774059,0,0,0,0,0,0,0.00
31551,3210803,0,0,0,0.264368,0.244158,9.754980,0,0,0,0,0,0,0.00
31554,3210843,0,0,0,0.278783,0.249012,9.764454,0,0,0,0,0,0,0.00
31556,3210883,0,0,0,0.307650,0.234783,9.773848,0,0,0,0,0,0,0.00
31558,3210923,0,0,0,0.264587,0.220222,9.769403,0,0,0,0,0,0,0.00
31560,3210962,0,0,0,0.269096,0.225031,9.735792,0,0,0,0,0,0,0.00
31562,3211002,0,0,0,0.269427,0.248967,9.793297,0,0,0,0,0,0,0.00
31564,3211042,0,0,0,0.245415,0.248857,9.783888,0,0,0,0,0,0,0.00
31566,3211081,0,0,0,0.235435,0.272747,9.745563,0,0,0,0,0,0,0.00
31567,3211101,0,0,0,0.240312,0.253621,9.745556,0,0,0,0,0,0,0.00
31570,3211161,0,0,0,0.250108,0.253666,9.774254,0,0,0,0,0,0,0.00
31571,3211181,0,0,0,0.278783,0.225076,9.750105,0,0,0,0,0,0,0.00
31574,3211220,0,0,0,0.264324,0.253733,9.754965,0,0,0,0,0,0,0.00
31576,3211260,0,0,0,0.269339,0.244180,9.778919,0,0,0,0,0,0,0.00
31578,3211300,0,0,0,0.278849,0.234651,9.764476,0,0,0,0,0,0,0.00
31580,3211339,0,0,0,0.283563,0.234673,9.754849,0,0,0,0,0,0,0.00
31582,3211379,0,0,0,0.264565,0.225009,9.769395,0,0,0,0,0,0,0.00
31584,3211419,0,0,0,0.264133,0.263307,9.735768,0,0,0,0,0,0,0.00
31586,3211458,0,0,0,0.264493,0.248945,9.774153,0,0,0,0,0,0,0.00
31588,3211498,0,0,0,0.254895,0.253688,9.774218,0,0,0,0,0,0,0.00
31590,3211538,0,0,0,0.245254,0.268005,9.774267,0,0,0,0,0,0,0.00
31592,3211578,0,0,0,0.250255,0.253666,9.793434,0,0,0,0,0,0,0.00
31594,3211607,0.245029,0.257622,9.772942,0,0,0,-0.127304,0.680929,-0.585018,3.171280,-2.621571,-11.087102,28.53
31597,3211657,0,0,0,0.288154,0.253843,9.740396,0,0,0,0,0,0,0.00
31599,3211697,0,0,0,0.279142,0.234651,9.802836,0,0,0,0,0,0,0.00
31601,3211736,0,0,0,0.269251,0.239393,9.764542,0,0,0,0,0,0,0.00
31602,3211756,0,0,0,0.278672,0.225076,9.735720,0,0,0,0,0,0,0.00
31604,3211796,0,0,0,0.254880,0.224964,9.755082,0,0,0,0,0,0,0.00
31606,3211836,0,0,0,0.264573,0.239371,9.778963,0,0,0,0,0,0,0.00
31608,3211875,0,0,0,0.259617,0.244136,9.759811,0,0,0,0,0,0,0.00
31610,3211915,0,0,0,0.250093,0.248878,9.769466,0,0,0,0,0,0,0.00
31614,3211994,0,0,0,0.254792,0.268049,9.769400,0,0,0,0,0,0,0.00
31617,3212034,0,0,0,0.269405,0.253755,9.793289,0,0,0,0,0,0,0.00
31619,3212074,0,0,0,0.254690,0.258474,9.750234,0,0,0,0,0,0,0.00
31621,3212113,0,0,0,0.264420,0.248945,9.764563,0,0,0,0,0,0,0.00
31623,3212153,0,0,0,0.273930,0.239415,9.750119,0,0,0,0,0,0,0.00
31625,3212193,0,0,0,0.278768,0.220289,9.745317,0,0,0,0,0,0,0.00
31627,3212232,0,0,0,0.264852,0.210648,9.798188,0,0,0,0,0,0,0.00
31629,3212272,0,0,0,0.288432,0.225120,9.759623,0,0,0,0,0,0,0.00
31631,3212312,0,0,0,0.254690,0.258474,9.750234,0,0,0,0,0,0,0.00
31633,3212352,0,0,0,0.250137,0.263240,9.783829,0,0,0,0,0,0,0.00
31635,3212391,0,0,0,0.273973,0.253777,9.764482,0,0,0,0,0,0,0.00
31636,3212411,0,0,0,0.240393,0.267982,9.764714,0,0,0,0,0,0,0.00
31639,3212451,0,0,0,0.249998,0.253666,9.759869,0,0,0,0,0,0,0.00
31641,3212490,0,0,0,0.269346,0.258541,9.788486,0,0,0,0,0,0,0.00
31643,3212530,0,0,0,0.288410,0.229907,9.759615,0,0,0,0,0,0,0.00
31645,3212570,0,0,0,0.283600,0.234673,9.759645,0,0,0,0,0,0,0.00
31647,3212610,0,0,0,0.269287,0.215457,9.754989,0,0,0,0,0,0,0.00
31649,3212649,0,0,0,0.264551,0.220222,9.764607,0,0,0,0,0,0,0.00
31651,3212689,0,0,0,0.259580,0.244136,9.755016,0,0,0,0,0,0,0.00
31653,3212729,0,0,0,0.250203,0.248878,9.783852,0,0,0,0,0,0,0.00
31655,3212768,0,0,0,0.249880,0.239305,9.735915,0,0,0,0,0,0,0.00
31657,3212808,0,0,0,0.269119,0.268116,9.764496,0,0,0,0,0,0,0.00
31660,3212848,0,0,0,0.240305,0.263195,9.750336,0,0,0,0,0,0,0.00
31662,3212887,0,0,0,0.240415,0.263195,9.764722,0,0,0,0,0,0,0.00
31664,3212927,0,0,0,0.278797,0.253799,9.769241,0,0,0,0,0,0,0.00
31666,3212967,0,0,0,0.293300,0.239505,9.778745,0,0,0,0,0,0,0.00
31668,3213007,0,0,0,0.273900,0.229840,9.740543,0,0,0,0,0,0,0.00
31670,3213046,0,0,0,0.279032,0.234651,9.788451,0,0,0,0,0,0,0.00
31672,3213086,0,0,0,0.273775,0.225053,9.721371,0,0,0,0,0,0,0.00
31674,3213126,0,0,0,0.269273,0.234606,9.764548,0,0,0,0,0,0,0.00
31676,3213165,0,0,0,0.250152,0.244091,9.774269,0,0,0,0,0,0,0.00
31678,3213205,0,0,0,0.259485,0.272859,9.759767,0,0,0,0,0,0,0.00
31681,3213245,0,0,0,0.250027,0.263240,9.769444,0,0,0,0,0,0,0.00
31683,3213284,0,0,0,0.269361,0.263329,9.793274,0,0,0,0,0,0,0.00
31684,3213304,0,0,0,0.259668,0.272859,9.783742,0,0,0,0,0,0,0.00
31686,3213344,0,0,0,0.254536,0.244113,9.721486,0,0,0,0,0,0,0.00
31688,3213384,0,0,0,0.259836,0.244136,9.788582,0,0,0,0,0,0,0.00
31690,3213423,0,0,0,0.274076,0.215479,9.754952,0,0,0,0,0,0,0.00
31692,3213463,0,0,0,0.283563,0.234673,9.754849,0,0,0,0,0,0,0.00
31694,3213503,0,0,0,0.259777,0.224987,9.769431,0,0,0,0,0,0,0.00
31696,3213542,0,0,0,0.273767,0.234628,9.726151,0,0,0,0,0,0,0.00
31698,3213582,0,0,0,0.259550,0.234562,9.745440,0,0,0,0,0,0,0.00
31701,3213622,0,0,0,0.254925,0.263262,9.783792,0,0,0,0,0,0,0.00
31703,3213661,0,0,0,0.259345,0.263285,9.735805,0,0,0,0,0,0,0.00
31705,3213701,0,0,0,0.264427,0.263307,9.774130,0,0,0,0,0,0,0.00
31707,3213741,0,0,0,0.235670,0.253599,9.764773,0,0,0,0,0,0,0.00
31709,3213781,0,0,0,0.254807,0.248900,9.759840,0,0,0,0,0,0,0.00
31711,3213820,0,0,0,0.264771,0.220222,9.793378,0,0,0,0,0,0,0.00
31713,3213860,0,0,0,0.274113,0.215479,9.759748,0,0,0,0,0,0,0.00
31715,3213900,0,0,0,0.278936,0.215502,9.764506,0,0,0,0,0,0,0.00
31717,3213939,0,0,0,0.278863,0.239438,9.769264,0,0,0,0,0,0,0.00
31719,3213979,0,0,0,0.269324,0.239393,9.774132,0,0,0,0,0,0,0.00
31721,3214007,0.274885,0.232869,9.768205,0,0,0,-0.126809,0.680931,-0.585014,3.173011,-2.623716,-11.081112,28.53
31724,3214058,0,0,0,0.259426,0.277646,9.754964,0,0,0,0,0,0,0.00
31726,3214098,0,0,0,0.235575,0.258386,9.755176,0,0,0,0,0,0,0.00
31728,3214138,0,0,0,0.245202,0.263218,9.764685,0,0,0,0,0,0,0.00
31729,3214158,0,0,0,0.249895,0.268027,9.755051,0,0,0,0,0,0,0.00
31731,3214197,0,0,0,0.249939,0.258452,9.755066,0,0,0,0,0,0,0.00
31733,3214237,0,0,0,0.278930,0.249012,9.783634,0,0,0,0,0,0,0.00
31735,3214277,0,0,0,0.273841,0.234628,9.735741,0,0,0,0,0,0,0.00
31737,3214316,0,0,0,0.264529,0.225009,9.764600,0,0,0,0,0,0,0.00
31741,3214396,0,0,0,0.278841,0.244225,9.769257,0,0,0,0,0,0,0.00
31744,3214436,0,0,0,0.273959,0.248989,9.759695,0,0,0,0,0,0,0.00
31746,3214475,0,0,0,0.274025,0.258563,9.774065,0,0,0,0,0,0,0.00
31748,3214515,0,0,0,0.254749,0.268038,9.764617,0,0,0,0,0,0,0.00
31750,3214555,0,0,0,0.245130,0.253633,9.750328,0,0,0,0,0,0,0.00
31752,3214594,0,0,0,0.254837,0.248889,9.764647,0,0,0,0,0,0,0.00
31754,3214634,0,0,0,0.250144,0.244080,9.774282,0,0,0,0,0,0,0.00
31756,3214674,0,0,0,0.264456,0.239359,9.764590,0,0,0,0,0,0,0.00
31758,3214713,0,0,0,0.245327,0.234484,9.764743,0,0,0,0,0,0,0.00
31760,3214753,0,0,0,0.259580,0.210613,9.735901,0,0,0,0,0,0,0.00
31762,3214793,0,0,0,0.274259,0.229829,9.788507,0,0,0,0,0,0,0.00
31763,3214813,0,0,0,0.279099,0.234639,9.798054,0,0,0,0,0,0,0.00
31767,3214872,0,0,0,0.292972,0.277789,9.759517,0,0,0,0,0,0,0.00
31768,3214892,0,0,0,0.264684,0.253721,9.802928,0,0,0,0,0,0,0.00
31770,3214932,0,0,0,0.240378,0.277545,9.769507,0,0,0,0,0,0,0.00
31772,3214971,0,0,0,0.264141,0.268083,9.740569,0,0,0,0,0,0,0.00
31774,3215011,0,0,0,0.254632,0.253676,9.740664,0,0,0,0,0,0,0.00
31776,3215051,0,0,0,0.259727,0.258485,9.783776,0,0,0,0,0,0,0.00
31778,3215090,0,0,0,0.254573,0.234528,9.721513,0,0,0,0,0,0,0.00
31780,3215130,0,0,0,0.250349,0.215357,9.783916,0,0,0,0,0,0,0.00
31782,3215170,0,0,0,0.264317,0.229785,9.740629,0,0,0,0,0,0,0.00
31784,3215210,0,0,0,0.278629,0.225064,9.730937,0,0,0,0,0,0,0.00
31787,3215249,0,0,0,0.259434,0.234550,9.731067,0,0,0,0,0,0,0.00
31789,3215289,0,0,0,0.278659,0.258574,9.754861,0,0,0,0,0,0,0.00
31790,3215309,0,0,0,0.278886,0.249001,9.778852,0,0,0,0,0,0,0.00
31793,3215368,0,0,0,0.264376,0.248934,9.759780,0,0,0,0,0,0,0.00
31794,3215388,0,0,0,0.245078,0.248845,9.740746,0,0,0,0,0,0,0.00
31796,3215428,0,0,0,0.245181,0.258419,9.759911,0,0,0,0,0,0,0.00
31798,3215468,0,0,0,0.250261,0.258441,9.798234,0,0,0,0,0,0,0.00
31800,3215507,0,0,0,0.249931,0.234506,9.740730,0,0,0,0,0,0,0.00
31802,3215547,0,0,0,0.250027,0.253654,9.764676,0,0,0,0,0,0,0.00
31804,3215587,0,0,0,0.273966,0.229829,9.750147,0,0,0,0,0,0,0.00
31807,3215626,0,0,0,0.269332,0.220233,9.764584,0,0,0,0,0,0,0.00
31809,3215666,0,0,0,0.264170,0.229785,9.721448,0,0,0,0,0,0,0.00
31811,3215706,0,0,0,0.269413,0.258530,9.798089,0,0,0,0,0,0,0.00
31813,3215745,0,0,0,0.269171,0.239381,9.754964,0,0,0,0,0,0,0.00
31815,3215785,0,0,0,0.273856,0.253765,9.750110,0,0,0,0,0,0,0.00
31817,3215825,0,0,0,0.254801,0.248889,9.759852,0,0,0,0,0,0,0.00
31819,3215865,0,0,0,0.249961,0.244080,9.750306,0,0,0,0,0,0,0.00
31821,3215904,0,0,0,0.254771,0.239314,9.750278,0,0,0,0,0,0,0.00
31823,3215944,0,0,0,0.245422,0.229696,9.774341,0,0,0,0,0,0,0.00
31825,3215984,0,0,0,0.264375,0.224998,9.745432,0,0,0,0,0,0,0.00
31826,3216003,0,0,0,0.269230,0.234594,9.759766,0,0,0,0,0,0,0.00
31829,3216043,0,0,0,0.273958,0.239403,9.754928,0,0,0,0,0,0,0.00
31831,3216083,0,0,0,0.269266,0.234594,9.764561,0,0,0,0,0,0,0.00
31833,3216123,0,0,0,0.273966,0.253765,9.764495,0,0,0,0,0,0,0.00
31835,3216162,0,0,0,0.274039,0.253765,9.774085,0,0,0,0,0,0,0.00
31837,3216202,0,0,0,0.249931,0.258441,9.755078,0,0,0,0,0,0,0.00
31839,3216242,0,0,0,0.264280,0.253721,9.750182,0,0,0,0,0,0,0.00
31841,3216281,0,0,0,0.254976,0.258463,9.788608,0,0,0,0,0,0,0.00
31843,3216321,0,0,0,0.245254,0.234484,9.755153,0,0,0,0,0,0,0.00
31845,3216361,0,0,0,0.249924,0.244080,9.745511,0,0,0,0,0,0,0.00
31847,3216400,0,0,0,0.235825,0.234439,9.774405,0,0,0,0,0,0,0.00
31850,3216440,0,0,0,0.254654,0.248889,9.740672,0,0,0,0,0,0,0.00
31852,3216480,0,0,0,0.259566,0.253698,9.759809,0,0,0,0,0,0,0.00
31854,3216519,0,0,0,0.264471,0.244146,9.769378,0,0,0,0,0,0,0.00
31856,3216559,0,0,0,0.269230,0.234594,9.759766,0,0,0,0,0,0,0.00
31858,3216599,0,0,0,0.264354,0.253721,9.759772,0,0,0,0,0,0,0.00
31860,3216639,0,0,0,0.269127,0.248956,9.754949,0,0,0,0,0,0,0.00
31862,3216678,0,0,0,0.269156,0.234594,9.750175,0,0,0,0,0,0,0.00
31864,3216718,0,0,0,0.245518,0.224909,9.783938,0,0,0,0,0,0,0.00
31866,3216758,0,0,0,0.240231,0.253610,9.735979,0,0,0,0,0,0,0.00
31868,3216797,0,0,0,0.254764,0.248889,9.755057,0,0,0,0,0,0,0.00
31871,3216837,0,0,0,0.245269,0.239270,9.759941,0,0,0,0,0,0,0.00
31872,3216857,0,0,0,0.268995,0.229807,9.726207,0,0,0,0,0,0,0.00
31874,3216897,0,0,0,0.269318,0.239381,9.774144,0,0,0,0,0,0,0.00
31876,3216936,0,0,0,0.264287,0.244146,9.745402,0,0,0,0,0,0,0.00
31878,3216976,0,0,0,0.288329,0.253832,9.764386,0,0,0,0,0,0,0.00
31880,3217016,0,0,0,0.293008,0.253854,9.749964,0,0,0,0,0,0,0.00
31882,3217055,0,0,0,0.273944,0.234616,9.750139,0,0,0,0,0,0,0.00
31884,3217095,0,0,0,0.264420,0.239359,9.759795,0,0,0,0,0,0,0.00
31886,3217135,0,0,0,0.264463,0.253721,9.774158,0,0,0,0,0,0,0.00
31888,3217174,0,0,0,0.240252,0.248822,9.735987,0,0,0,0,0,0,0.00
31890,3217214,0,0,0,0.245466,0.244058,9.788704,0,0,0,0,0,0,0.00
31893,3217254,0,0,0,0.249872,0.239292,9.735929,0,0,0,0,0,0,0.00
31895,3217294,0,0,0,0.254859,0.244102,9.764655,0,0,0,0,0,0,0.00
31897,3217333,0,0,0,0.269296,0.244168,9.774137,0,0,0,0,0,0,0.00
31899,3217373,0,0,0,0.283659,0.244235,9.774028,0,0,0,0,0,0,0.00
31901,3217413,0,0,0,0.269222,0.244168,9.764546,0,0,0,0,0,0,0.00
31903,3217452,0,0,0,0.283629,0.234661,9.764452,0,0,0,0,0,0,0.00
31905,3217492,0,0,0,0.288190,0.244257,9.740426,0,0,0,0,0,0,0.00
31907,3217532,0,0,0,0.264332,0.258508,9.759765,0,0,0,0,0,0,0.00
31909,3217571,0,0,0,0.245158,0.239270,9.745556,0,0,0,0,0,0,0.00
31911,3217611,0,0,0,0.254969,0.244102,9.779040,0,0,0,0,0,0,0.00
31914,3217651,0,0,0,0.240377,0.253610,9.755159,0,0,0,0,0,0,0.00
31916,3217690,0,0,0,0.250071,0.244080,9.764691,0,0,0,0,0,0,0.00
31917,3217710,0,0,0,0.259662,0.248911,9.769406,0,0,0,0,0,0,0.00
31920,3217770,0,0,0,0.278930,0.239426,9.778867,0,0,0,0,0,0,0.00
31921,3217790,0,0,0,0.273841,0.248978,9.745322,0,0,0,0,0,0,0.00
31923,3217829,0,0,0,0.278820,0.239426,9.764482,0,0,0,0,0,0,0.00
31925,3217869,0,0,0,0.297971,0.239514,9.764336,0,0,0,0,0,0,0.00
31927,3217909,0,0,0,0.283527,0.249022,9.759635,0,0,0,0,0,0,0.00
31929,3217948,0,0,0,0.259749,0.253698,9.783784,0,0,0,0,0,0,0.00
31931,3217988,0,0,0,0.264581,0.244146,9.783763,0,0,0,0,0,0,0.00
31934,3218028,0,0,0,0.259471,0.258485,9.750211,0,0,0,0,0,0,0.00
31936,3218068,0,0,0,0.250232,0.248867,9.788659,0,0,0,0,0,0,0.00
31938,3218107,0,0,0,0.235582,0.239225,9.745628,0,0,0,0,0,0,0.00
31940,3218147,0,0,0,0.254639,0.244102,9.735885,0,0,0,0,0,0,0.00
31942,3218187,0,0,0,0.254976,0.234528,9.774260,0,0,0,0,0,0,0.00
31944,3218226,0,0,0,0.283395,0.253810,9.745242,0,0,0,0,0,0,0.00
31946,3218266,0,0,0,0.302657,0.253899,9.759481,0,0,0,0,0,0,0.00
31948,3218306,0,0,0,0.288600,0.234683,9.788391,0,0,0,0,0,0,0.00
31950,3218345,0,0,0,0.288315,0.249044,9.759599,0,0,0,0,0,0,0.00
31951,3218365,0,0,0,0.269075,0.244168,9.745366,0,0,0,0,0,0,0.00
31953,3218405,0,0,0,0.245122,0.263206,9.755108,0,0,0,0,0,0,0.00
31956,3218445,0,0,0,0.245188,0.248845,9.755131,0,0,0,0,0,0,0.00
31958,3218484,0,0,0,0.273944,0.258552,9.764487,0,0,0,0,0,0,0.00
31960,3218524,0,0,0,0.240348,0.244035,9.745584,0,0,0,0,0,0,0.00
31962,3218564,0,0,0,0.245012,0.263206,9.740723,0,0,0,0,0,0,0.00
31964,3218603,0,0,0,0.254889,0.253676,9.774230,0,0,0,0,0,0,0.00
31966,3218643,0,0,0,0.278637,0.239426,9.740506,0,0,0,0,0,0,0.00
31968,3218683,0,0,0,0.278915,0.234639,9.774078,0,0,0,0,0,0,0.00
31970,3218723,0,0,0,0.283732,0.244235,9.783618,0,0,0,0,0,0,0.00
31972,3218762,0,0,0,0.273914,0.248978,9.754912,0,0,0,0,0,0,0.00
31974,3218802,0,0,0,0.264404,0.234572,9.755007,0,0,0,0,0,0,0.00
31977,3218842,0,0,0,0.264332,0.258508,9.759765,0,0,0,0,0,0,0.00
31979,3218881,0,0,0,0.254896,0.244102,9.769450,0,0,0,0,0,0,0.00
31981,3218921,0,0,0,0.245152,0.272780,9.764684,0,0,0,0,0,0,0.00
31983,3218961,0,0,0,0.249975,0.248867,9.755094,0,0,0,0,0,0,0.00
31985,3219000,0,0,0,0.259544,0.258485,9.759801,0,0,0,0,0,0,0.00
31987,3219040,0,0,0,0.269046,0.234594,9.735790,0,0,0,0,0,0,0.00
31989,3219080,0,0,0,0.264551,0.234572,9.774187,0,0,0,0,0,0,0.00
31991,3219119,0,0,0,0.274127,0.234616,9.774115,0,0,0,0,0,0,0.00
31993,3219159,0,0,0,0.302451,0.258685,9.735498,0,0,0,0,0,0,0.00
31995,3219199,0,0,0,0.283725,0.253810,9.788398,0,0,0,0,0,0,0.00
31998,3219239,0,0,0,0.259544,0.258485,9.759801,0,0,0,0,0,0,0.00
31999,3219258,0,0,0,0.273914,0.248978,9.754912,0,0,0,0,0,0,0.00
32001,3219298,0,0,0,0.235627,0.253588,9.759991,0,0,0,0,0,0,0.00
32003,3219338,0,0,0,0.264529,0.239359,9.774180,0,0,0,0,0,0,0.00
32005,3219377,0,0,0,0.254617,0.248889,9.735877,0,0,0,0,0,0,0.00
32007,3219417,0,0,0,0.255079,0.244102,9.793426,0,0,0,0,0,0,0.00
32009,3219457,0,0,0,0.245085,0.239270,9.735966,0,0,0,0,0,0,0.00
32011,3219497,0,0,0,0.264456,0.239359,9.764590,0,0,0,0,0,0,0.00
32013,3219536,0,0,0,0.269340,0.234594,9.774151,0,0,0,0,0,0,0.00
32015,3219576,0,0,0,0.288263,0.244257,9.750016,0,0,0,0,0,0,0.00
32017,3219607,0.278638,0.238267,9.773152,0,0,0,-0.128774,0.680941,-0.586533,3.181339,-2.630774,-11.067473,28.55
32020,3219655,0,0,0,0.259551,0.248911,9.755021,0,0,0,0,0,0,0.00
32022,3219695,0,0,0,0.254867,0.234528,9.759874,0,0,0,0,0,0,0.00
32024,3219735,0,0,0,0.250180,0.244080,9.779077,0,0,0,0,0,0,0.00
32026,3219774,0,0,0,0.235634,0.244013,9.755211,0,0,0,0,0,0,0.00
32028,3219814,0,0,0,0.235759,0.248800,9.774384,0,0,0,0,0,0,0.00
32030,3219854,0,0,0,0.245210,0.244058,9.755138,0,0,0,0,0,0,0.00
32032,3219893,0,0,0,0.240341,0.253610,9.750364,0,0,0,0,0,0,0.00
32034,3219933,0,0,0,0.278725,0.244213,9.754884,0,0,0,0,0,0,0.00
32038,3220013,0,0,0,0.288300,0.244257,9.754811,0,0,0,0,0,0,0.00
32041,3220052,0,0,0,0.274054,0.234616,9.764524,0,0,0,0,0,0,0.00
32042,3220072,0,0,0,0.283556,0.234661,9.754862,0,0,0,0,0,0,0.00
32044,3220112,0,0,0,0.264412,0.248934,9.764575,0,0,0,0,0,0,0.00
32046,3220152,0,0,0,0.259537,0.244123,9.750234,0,0,0,0,0,0,0.00
32048,3220191,0,0,0,0.254845,0.263250,9.774215,0,0,0,0,0,0,0.00
32050,3220231,0,0,0,0.240363,0.248822,9.750372,0,0,0,0,0,0,0.00
32052,3220271,0,0,0,0.240421,0.244035,9.755175,0,0,0,0,0,0,0.00
32054,3220310,0,0,0,0.235839,0.239225,9.779194,0,0,0,0,0,0,0.00
32056,3220350,0,0,0,0.264265,0.248934,9.745395,0,0,0,0,0,0,0.00
32058,3220390,0,0,0,0.264434,0.244146,9.764583,0,0,0,0,0,0,0.00
32061,3220429,0,0,0,0.278688,0.244213,9.750089,0,0,0,0,0,0,0.00
32063,3220469,0,0,0,0.283703,0.234661,9.774042,0,0,0,0,0,0,0.00
32065,3220509,0,0,0,0.288234,0.234683,9.740440,0,0,0,0,0,0,0.00
32067,3220548,0,0,0,0.269354,0.239381,9.778939,0,0,0,0,0,0,0.00
32069,3220588,0,0,0,0.235560,0.244013,9.745621,0,0,0,0,0,0,0.00
32070,3220608,0,0,0,0.245320,0.244058,9.769524,0,0,0,0,0,0,0.00
32073,3220668,0,0,0,0.245144,0.258419,9.755116,0,0,0,0,0,0,0.00
32074,3220687,0,0,0,0.240385,0.244035,9.750380,0,0,0,0,0,0,0.00
32076,3220727,0,0,0,0.235707,0.244013,9.764801,0,0,0,0,0,0,0.00
32078,3220767,0,0,0,0.264522,0.224998,9.764612,0,0,0,0,0,0,0.00
32080,3220806,0,0,0,0.264265,0.248934,9.745395,0,0,0,0,0,0,0.00
32083,3220846,0,0,0,0.273936,0.244190,9.754920,0,0,0,0,0,0,0.00
32085,3220886,0,0,0,0.302825,0.249111,9.778669,0,0,0,0,0,0,0.00
32087,3220926,0,0,0,0.283373,0.258596,9.745234,0,0,0,0,0,0,0.00
32089,3220965,0,0,0,0.269405,0.244168,9.788522,0,0,0,0,0,0,0.00
32091,3221005,0,0,0,0.254771,0.239314,9.750278,0,0,0,0,0,0,0.00
32093,3221045,0,0,0,0.259500,0.244123,9.745439,0,0,0,0,0,0,0.00
32095,3221084,0,0,0,0.240407,0.239247,9.750387,0,0,0,0,0,0,0.00
32097,3221124,0,0,0,0.235729,0.239225,9.764809,0,0,0,0,0,0,0.00
32099,3221164,0,0,0,0.249924,0.244080,9.745511,0,0,0,0,0,0,0.00
32101,3221203,0,0,0,0.259551,0.224975,9.740673,0,0,0,0,0,0,0.00
32104,3221243,0,0,0,0.259390,0.244123,9.731052,0,0,0,0,0,0,0.00
32106,3221283,0,0,0,0.283615,0.253810,9.774013,0,0,0,0,0,0,0.00
32107,3221303,0,0,0,0.278747,0.239426,9.754891,0,0,0,0,0,0,0.00
32110,3221362,0,0,0,0.297810,0.258663,9.754715,0,0,0,0,0,0,0.00
32111,3221382,0,0,0,0.269141,0.229807,9.745388,0,0,0,0,0,0,0.00
32113,3221422,0,0,0,0.274113,0.253765,9.783675,0,0,0,0,0,0,0.00
32115,3221461,0,0,0,0.249902,0.248867,9.745503,0,0,0,0,0,0,0.00
32117,3221501,0,0,0,0.240539,0.234461,9.764779,0,0,0,0,0,0,0.00
32119,3221541,0,0,0,0.249968,0.234506,9.745525,0,0,0,0,0,0,0.00
32121,3221581,0,0,0,0.245158,0.239270,9.745556,0,0,0,0,0,0,0.00
32123,3221607,0.249540,0.241307,9.750001,0,0,0,-0.131721,0.680455,-0.588568,3.188996,-2.633131,-11.064078,28.55
32126,3221660,0,0,0,0.278835,0.244213,9.769269,0,0,0,0,0,0,0.00
32128,3221700,0,0,0,0.259478,0.248911,9.745431,0,0,0,0,0,0,0.00
32130,3221739,0,0,0,0.287977,0.258618,9.721222,0,0,0,0,0,0,0.00
32132,3221779,0,0,0,0.274039,0.253765,9.774085,0,0,0,0,0,0,0.00
32134,3221819,0,0,0,0.278695,0.234639,9.745308,0,0,0,0,0,0,0.00
32136,3221858,0,0,0,0.254976,0.258463,9.788608,0,0,0,0,0,0,0.00
32138,3221898,0,0,0,0.235626,0.229651,9.745643,0,0,0,0,0,0,0.00
32139,3221918,0,0,0,0.249784,0.258441,9.735898,0,0,0,0,0,0,0.00
32143,3221997,0,0,0,0.235773,0.229651,9.764823,0,0,0,0,0,0,0.00
32146,3222037,0,0,0,0.254654,0.248889,9.740672,0,0,0,0,0,0,0.00
32148,3222077,0,0,0,0.264434,0.244146,9.764583,0,0,0,0,0,0,0.00
32150,3222116,0,0,0,0.278886,0.249001,9.778852,0,0,0,0,0,0,0.00
32152,3222156,0,0,0,0.273900,0.244190,9.750125,0,0,0,0,0,0,0.00
32154,3222196,0,0,0,0.269361,0.229807,9.774158,0,0,0,0,0,0,0.00
32156,3222235,0,0,0,0.278747,0.215490,9.740543,0,0,0,0,0,0,0.00
32158,3222275,0,0,0,0.273988,0.248978,9.764503,0,0,0,0,0,0,0.00
32160,3222315,0,0,0,0.264610,0.253721,9.793338,0,0,0,0,0,0,0.00
32162,3222355,0,0,0,0.245092,0.253633,9.745533,0,0,0,0,0,0,0.00
32164,3222394,0,0,0,0.250019,0.239292,9.755109,0,0,0,0,0,0,0.00
32165,3222414,0,0,0,0.235861,0.234439,9.779201,0,0,0,0,0,0,0.00
32169,3222474,0,0,0,0.259412,0.263272,9.745408,0,0,0,0,0,0,0.00
32170,3222493,0,0,0,0.278754,0.253788,9.764459,0,0,0,0,0,0,0.00
32172,3222533,0,0,0,0.259596,0.263272,9.769383,0,0,0,0,0,0,0.00
32174,3222573,0,0,0,0.273819,0.253765,9.745315,0,0,0,0,0,0,0.00
32176,3222613,0,0,0,0.274127,0.234616,9.774115,0,0,0,0,0,0,0.00
32178,3222652,0,0,0,0.278989,0.234639,9.783669,0,0,0,0,0,0,0.00
32180,3222692,0,0,0,0.278762,0.244213,9.759679,0,0,0,0,0,0,0.00
32182,3222732,0,0,0,0.259581,0.258485,9.764596,0,0,0,0,0,0,0.00
32184,3222771,0,0,0,0.240480,0.239247,9.759977,0,0,0,0,0,0,0.00
32186,3222811,0,0,0,0.254815,0.253676,9.764640,0,0,0,0,0,0,0.00
32189,3222851,0,0,0,0.245378,0.239270,9.774326,0,0,0,0,0,0,0.00
32191,3222890,0,0,0,0.250078,0.258441,9.774259,0,0,0,0,0,0,0.00
32193,3222930,0,0,0,0.269076,0.268105,9.759713,0,0,0,0,0,0,0.00
32195,3222970,0,0,0,0.269039,0.268105,9.754918,0,0,0,0,0,0,0.00
32197,3223010,0,0,0,0.278688,0.244213,9.750089,0,0,0,0,0,0,0.00
32199,3223049,0,0,0,0.293301,0.229918,9.773976,0,0,0,0,0,0,0.00
32201,3223089,0,0,0,0.283556,0.234661,9.754862,0,0,0,0,0,0,0.00
32202,3223109,0,0,0,0.269354,0.215446,9.764591,0,0,0,0,0,0,0.00
32205,3223168,0,0,0,0.249997,0.244080,9.755101,0,0,0,0,0,0,0.00
32206,3223188,0,0,0,0.264155,0.248934,9.731009,0,0,0,0,0,0,0.00
32209,3223228,0,0,0,0.249983,0.239292,9.750314,0,0,0,0,0,0,0.00
32211,3223268,0,0,0,0.240648,0.234461,9.779164,0,0,0,0,0,0,0.00
32213,3223307,0,0,0,0.249953,0.253654,9.755086,0,0,0,0,0,0,0.00
32215,3223347,0,0,0,0.269208,0.263317,9.774106,0,0,0,0,0,0,0.00
32217,3223387,0,0,0,0.264368,0.258508,9.764560,0,0,0,0,0,0,0.00
32219,3223426,0,0,0,0.264258,0.258508,9.750175,0,0,0,0,0,0,0.00
32221,3223466,0,0,0,0.288542,0.239470,9.783589,0,0,0,0,0,0,0.00
32223,3223506,0,0,0,0.293199,0.244279,9.769159,0,0,0,0,0,0,0.00
32225,3223545,0,0,0,0.273849,0.239403,9.740542,0,0,0,0,0,0,0.00
32227,3223585,0,0,0,0.254851,0.229740,9.755087,0,0,0,0,0,0,0.00
32229,3223607,0.264101,0.238492,9.753424,0,0,0,-0.132228,0.677936,-0.586597,3.193275,-2.636734,-11.064117,28.55
32232,3223664,0,0,0,0.259764,0.234550,9.774223,0,0,0,0,0,0,0.00
32234,3223704,0,0,0,0.230891,0.258352,9.769609,0,0,0,0,0,0,0.00
32235,3223724,0,0,0,0.244953,0.267994,9.735920,0,0,0,0,0,0,0.00
32237,3223764,0,0,0,0.245122,0.263206,9.755108,0,0,0,0,0,0,0.00
32239,3223803,0,0,0,0.259456,0.253698,9.745423,0,0,0,0,0,0,0.00
32241,3223843,0,0,0,0.254903,0.234528,9.764669,0,0,0,0,0,0,0.00
32243,3223883,0,0,0,0.278893,0.239426,9.774072,0,0,0,0,0,0,0.00
32245,3223922,0,0,0,0.269024,0.239381,9.735784,0,0,0,0,0,0,0.00
32249,3224002,0,0,0,0.264551,0.234572,9.774187,0,0,0,0,0,0,0.00
32252,3224042,0,0,0,0.269046,0.234594,9.735790,0,0,0,0,0,0,0.00
32254,3224081,0,0,0,0.254837,0.248889,9.764647,0,0,0,0,0,0,0.00
32256,3224121,0,0,0,0.240363,0.248822,9.750372,0,0,0,0,0,0,0.00
32258,3224161,0,0,0,0.249873,0.263228,9.750276,0,0,0,0,0,0,0.00
32260,3224200,0,0,0,0.254727,0.272824,9.764610,0,0,0,0,0,0,0.00
32262,3224240,0,0,0,0.264016,0.263295,9.721395,0,0,0,0,0,0,0.00
32264,3224280,0,0,0,0.264668,0.248934,9.798141,0,0,0,0,0,0,0.00
32266,3224319,0,0,0,0.259617,0.234550,9.755043,0,0,0,0,0,0,0.00
32268,3224359,0,0,0,0.278373,0.249001,9.711720,0,0,0,0,0,0,0.00
32270,3224399,0,0,0,0.269325,0.229807,9.769363,0,0,0,0,0,0,0.00
32273,3224439,0,0,0,0.283439,0.244235,9.745257,0,0,0,0,0,0,0.00
32274,3224458,0,0,0,0.264214,0.229796,9.726231,0,0,0,0,0,0,0.00
32276,3224498,0,0,0,0.254953,0.248900,9.779020,0,0,0,0,0,0,0.00
32278,3224538,0,0,0,0.245260,0.258430,9.769487,0,0,0,0,0,0,0.00
32280,3224577,0,0,0,0.240305,0.263195,9.750336,0,0,0,0,0,0,0.00
32282,3224617,0,0,0,0.249859,0.268027,9.750255,0,0,0,0,0,0,0.00
32284,3224657,0,0,0,0.264471,0.229796,9.759797,0,0,0,0,0,0,0.00
32286,3224697,0,0,0,0.264412,0.258519,9.769342,0,0,0,0,0,0,0.00
32288,3224736,0,0,0,0.259733,0.234562,9.769416,0,0,0,0,0,0,0.00
32290,3224776,0,0,0,0.278769,0.244225,9.759666,0,0,0,0,0,0,0.00
32292,3224807,0.267926,0.238909,9.763474,0,0,0,-0.132216,0.676945,-0.587110,3.195435,-2.639173,-11.061486,28.53
32295,3224855,0,0,0,0.254741,0.239326,9.745469,0,0,0,0,0,0,0.00
32297,3224895,0,0,0,0.269251,0.239393,9.764542,0,0,0,0,0,0,0.00
32299,3224935,0,0,0,0.250005,0.244091,9.755089,0,0,0,0,0,0,0.00
32301,3224974,0,0,0,0.240283,0.267982,9.750328,0,0,0,0,0,0,0.00
32303,3225014,0,0,0,0.235706,0.253599,9.769568,0,0,0,0,0,0,0.00
32305,3225054,0,0,0,0.259360,0.268072,9.740592,0,0,0,0,0,0,0.00
32307,3225093,0,0,0,0.255027,0.224964,9.774262,0,0,0,0,0,0,0.00
32308,3225113,0,0,0,0.255064,0.248900,9.793406,0,0,0,0,0,0,0.00
32312,3225193,0,0,0,0.274179,0.225053,9.774117,0,0,0,0,0,0,0.00
32315,3225232,0,0,0,0.278797,0.229863,9.754893,0,0,0,0,0,0,0.00
32317,3225272,0,0,0,0.274083,0.229840,9.764520,0,0,0,0,0,0,0.00
32319,3225312,0,0,0,0.269317,0.225031,9.764564,0,0,0,0,0,0,0.00
32321,3225351,0,0,0,0.269420,0.234606,9.783729,0,0,0,0,0,0,0.00
32323,3225391,0,0,0,0.235700,0.263173,9.774348,0,0,0,0,0,0,0.00
32325,3225431,0,0,0,0.240524,0.263195,9.779107,0,0,0,0,0,0,0.00
32327,3225471,0,0,0,0.240180,0.282344,9.745511,0,0,0,0,0,0,0.00
32329,3225510,0,0,0,0.259587,0.258497,9.764584,0,0,0,0,0,0,0.00
32331,3225550,0,0,0,0.254741,0.239326,9.745469,0,0,0,0,0,0,0.00
32333,3225590,0,0,0,0.269185,0.253755,9.764519,0,0,0,0,0,0,0.00
32336,3225629,0,0,0,0.278725,0.253799,9.759651,0,0,0,0,0,0,0.00
32338,3225669,0,0,0,0.274282,0.234628,9.793283,0,0,0,0,0,0,0.00
32340,3225709,0,0,0,0.283650,0.215524,9.754880,0,0,0,0,0,0,0.00
32342,3225748,0,0,0,0.278834,0.229863,9.759688,0,0,0,0,0,0,0.00
32344,3225788,0,0,0,0.254601,0.253688,9.735856,0,0,0,0,0,0,0.00
32345,3225808,0,0,0,0.249931,0.244091,9.745498,0,0,0,0,0,0,0.00
32348,3225868,0,0,0,0.250042,0.268027,9.774231,0,0,0,0,0,0,0.00
32349,3225887,0,0,0,0.235517,0.263173,9.750372,0,0,0,0,0,0,0.00
32351,3225927,0,0,0,0.259440,0.258497,9.745402,0,0,0,0,0,0,0.00
32353,3225967,0,0,0,0.259609,0.253711,9.764591,0,0,0,0,0,0,0.00
32355,3226006,0,0,0,0.259705,0.224987,9.759841,0,0,0,0,0,0,0.00
32358,3226046,0,0,0,0.269053,0.234606,9.735777,0,0,0,0,0,0,0.00
32360,3226086,0,0,0,0.274032,0.248989,9.769285,0,0,0,0,0,0,0.00
32362,3226126,0,0,0,0.283548,0.229885,9.750061,0,0,0,0,0,0,0.00
32364,3226165,0,0,0,0.273842,0.258563,9.750089,0,0,0,0,0,0,0.00
32366,3226205,0,0,0,0.269280,0.248967,9.774117,0,0,0,0,0,0,0.00
32368,3226245,0,0,0,0.278519,0.258586,9.735667,0,0,0,0,0,0,0.00
32370,3226284,0,0,0,0.245246,0.253644,9.764700,0,0,0,0,0,0,0.00
32372,3226324,0,0,0,0.259653,0.268072,9.778954,0,0,0,0,0,0,0.00
32374,3226364,0,0,0,0.249925,0.253666,9.750278,0,0,0,0,0,0,0.00
32376,3226403,0,0,0,0.264288,0.253733,9.750169,0,0,0,0,0,0,0.00
32379,3226443,0,0,0,0.264647,0.239371,9.788553,0,0,0,0,0,0,0.00
32381,3226483,0,0,0,0.283519,0.244246,9.754835,0,0,0,0,0,0,0.00
32382,3226503,0,0,0,0.278570,0.239438,9.730903,0,0,0,0,0,0,0.00
32384,3226542,0,0,0,0.274039,0.215479,9.750156,0,0,0,0,0,0,0.00
32386,3226582,0,0,0,0.274186,0.239415,9.783686,0,0,0,0,0,0,0.00
32388,3226622,0,0,0,0.278644,0.239438,9.740493,0,0,0,0,0,0,0.00
32390,3226661,0,0,0,0.254726,0.258474,9.755030,0,0,0,0,0,0,0.00
32392,3226701,0,0,0,0.259500,0.253711,9.750205,0,0,0,0,0,0,0.00
32394,3226741,0,0,0,0.245026,0.253644,9.735929,0,0,0,0,0,0,0.00
32396,3226780,0,0,0,0.254800,0.258474,9.764620,0,0,0,0,0,0,0.00
32399,3226820,0,0,0,0.250071,0.229730,9.755111,0,0,0,0,0,0,0.00
32401,3226860,0,0,0,0.250012,0.258452,9.764656,0,0,0,0,0,0,0.00
32403,3226900,0,0,0,0.283592,0.244246,9.764425,0,0,0,0,0,0,0.00
32405,3226939,0,0,0,0.288292,0.215546,9.735662,0,0,0,0,0,0,0.00
32407,3226979,0,0,0,0.269265,0.220244,9.754981,0,0,0,0,0,0,0.00
32409,3227019,0,0,0,0.278885,0.234651,9.769271,0,0,0,0,0,0,0.00
32411,3227058,0,0,0,0.269243,0.248967,9.769321,0,0,0,0,0,0,0.00
32413,3227098,0,0,0,0.273886,0.248989,9.750104,0,0,0,0,0,0,0.00
32415,3227138,0,0,0,0.226066,0.243980,9.755271,0,0,0,0,0,0,0.00
32417,3227177,0,0,0,0.245202,0.239283,9.750337,0,0,0,0,0,0,0.00
32419,3227207,0.246077,0.248531,9.755383,0,0,0,-0.126770,0.680468,-0.588024,3.204316,-2.642331,-11.054628,28.53
32422,3227257,0,0,0,0.240327,0.258408,9.750343,0,0,0,0,0,0,0.00
32424,3227297,0,0,0,0.254880,0.248900,9.769430,0,0,0,0,0,0,0.00
32426,3227336,0,0,0,0.273952,0.234628,9.750126,0,0,0,0,0,0,0.00
32427,3227356,0,0,0,0.264376,0.234584,9.750198,0,0,0,0,0,0,0.00
32429,3227396,0,0,0,0.278834,0.229863,9.759688,0,0,0,0,0,0,0.00
32431,3227435,0,0,0,0.273805,0.234628,9.730946,0,0,0,0,0,0,0.00
32433,3227475,0,0,0,0.273878,0.234628,9.740536,0,0,0,0,0,0,0.00
32435,3227515,0,0,0,0.264478,0.244158,9.769365,0,0,0,0,0,0,0.00
32439,3227594,0,0,0,0.245437,0.244069,9.783895,0,0,0,0,0,0,0.00
32442,3227634,0,0,0,0.230758,0.248790,9.745636,0,0,0,0,0,0,0.00
32444,3227674,0,0,0,0.240532,0.253621,9.774327,0,0,0,0,0,0,0.00
32446,3227713,0,0,0,0.245194,0.248857,9.755117,0,0,0,0,0,0,0.00
32448,3227753,0,0,0,0.264324,0.253733,9.754965,0,0,0,0,0,0,0.00
32450,3227793,0,0,0,0.269163,0.234606,9.750162,0,0,0,0,0,0,0.00
32452,3227832,0,0,0,0.283672,0.234673,9.769235,0,0,0,0,0,0,0.00
32454,3227872,0,0,0,0.273944,0.244202,9.754908,0,0,0,0,0,0,0.00
32456,3227912,0,0,0,0.288564,0.244268,9.788363,0,0,0,0,0,0,0.00
32458,3227951,0,0,0,0.259455,0.239349,9.735843,0,0,0,0,0,0,0.00
32460,3227991,0,0,0,0.240275,0.253621,9.740761,0,0,0,0,0,0,0.00
32461,3228011,0,0,0,0.235567,0.244024,9.745607,0,0,0,0,0,0,0.00
32465,3228071,0,0,0,0.240532,0.253621,9.774327,0,0,0,0,0,0,0.00
32466,3228090,0,0,0,0.249947,0.248878,9.750285,0,0,0,0,0,0,0.00
32468,3228130,0,0,0,0.249778,0.277601,9.745445,0,0,0,0,0,0,0.00
32470,3228170,0,0,0,0.250012,0.258452,9.764656,0,0,0,0,0,0,0.00
32472,3228209,0,0,0,0.250100,0.239305,9.764687,0,0,0,0,0,0,0.00
32474,3228249,0,0,0,0.274025,0.234628,9.759717,0,0,0,0,0,0,0.00
32476,3228289,0,0,0,0.283548,0.229885,9.750061,0,0,0,0,0,0,0.00
32478,3228329,0,0,0,0.273958,0.225053,9.745346,0,0,0,0,0,0,0.00
32480,3228368,0,0,0,0.264376,0.234584,9.750198,0,0,0,0,0,0,0.00
32482,3228408,0,0,0,0.259617,0.244136,9.759811,0,0,0,0,0,0,0.00
32485,3228448,0,0,0,0.250027,0.239305,9.755096,0,0,0,0,0,0,0.00
32487,3228487,0,0,0,0.245341,0.248857,9.774298,0,0,0,0,0,0,0.00
32489,3228527,0,0,0,0.254646,0.268049,9.750218,0,0,0,0,0,0,0.00
32491,3228567,0,0,0,0.254888,0.263262,9.778997,0,0,0,0,0,0,0.00
32493,3228606,0,0,0,0.259506,0.244136,9.745425,0,0,0,0,0,0,0.00
32495,3228646,0,0,0,0.269177,0.239393,9.754951,0,0,0,0,0,0,0.00
32496,3228666,0,0,0,0.269215,0.239393,9.759747,0,0,0,0,0,0,0.00
32498,3228706,0,0,0,0.298022,0.229952,9.764338,0,0,0,0,0,0,0.00
32500,3228745,0,0,0,0.278958,0.234651,9.778861,0,0,0,0,0,0,0.00
32502,3228785,0,0,0,0.288505,0.225120,9.769213,0,0,0,0,0,0,0.00
32505,3228825,0,0,0,0.273856,0.239415,9.740529,0,0,0,0,0,0,0.00
32507,3228864,0,0,0,0.259873,0.244136,9.793377,0,0,0,0,0,0,0.00
32509,3228904,0,0,0,0.245129,0.263218,9.755095,0,0,0,0,0,0,0.00
32511,3228944,0,0,0,0.259375,0.272859,9.745380,0,0,0,0,0,0,0.00
32513,3228984,0,0,0,0.245341,0.248857,9.774298,0,0,0,0,0,0,0.00
32515,3229023,0,0,0,0.230590,0.277513,9.740796,0,0,0,0,0,0,0.00
32517,3229063,0,0,0,0.264404,0.220222,9.745426,0,0,0,0,0,0,0.00
32519,3229103,0,0,0,0.274003,0.239415,9.759710,0,0,0,0,0,0,0.00
32521,3229142,0,0,0,0.278628,0.234651,9.735704,0,0,0,0,0,0,0.00
32523,3229182,0,0,0,0.278863,0.239438,9.769264,0,0,0,0,0,0,0.00
32525,3229207,0.271970,0.228742,9.756662,0,0,0,-0.141192,0.690899,-0.589033,3.206119,-2.646060,-11.057286,28.53
32528,3229261,0,0,0,0.278673,0.249012,9.750068,0,0,0,0,0,0,0.00
32530,3229301,0,0,0,0.250086,0.258452,9.774246,0,0,0,0,0,0,0.00
32532,3229341,0,0,0,0.273798,0.268138,9.750073,0,0,0,0,0,0,0.00
32534,3229380,0,0,0,0.245275,0.263218,9.774275,0,0,0,0,0,0,0.00
32535,3229400,0,0,0,0.240635,0.263195,9.793492,0,0,0,0,0,0,0.00
32538,3229460,0,0,0,0.245151,0.258430,9.755102,0,0,0,0,0,0,0.00
32539,3229480,0,0,0,0.269156,0.244180,9.754944,0,0,0,0,0,0,0.00
32541,3229519,0,0,0,0.259565,0.239349,9.750228,0,0,0,0,0,0,0.00
32545,3229599,0,0,0,0.269368,0.229818,9.774146,0,0,0,0,0,0,0.00
32548,3229638,0,0,0,0.269331,0.229818,9.769351,0,0,0,0,0,0,0.00
32550,3229678,0,0,0,0.264551,0.244158,9.778955,0,0,0,0,0,0,0.00
32552,3229718,0,0,0,0.259639,0.239349,9.759819,0,0,0,0,0,0,0.00
32554,3229758,0,0,0,0.273709,0.263350,9.735696,0,0,0,0,0,0,0.00
32556,3229797,0,0,0,0.254969,0.253688,9.783808,0,0,0,0,0,0,0.00
32558,3229837,0,0,0,0.259639,0.263285,9.774166,0,0,0,0,0,0,0.00
32559,3229857,0,0,0,0.264155,0.258519,9.735776,0,0,0,0,0,0,0.00
32561,3229896,0,0,0,0.254924,0.239326,9.769445,0,0,0,0,0,0,0.00
32563,3229936,0,0,0,0.274017,0.220266,9.750149,0,0,0,0,0,0,0.00
32565,3229976,0,0,0,0.283401,0.229885,9.730881,0,0,0,0,0,0,0.00
32568,3230016,0,0,0,0.274179,0.225053,9.774117,0,0,0,0,0,0,0.00
32570,3230055,0,0,0,0.278717,0.239438,9.750083,0,0,0,0,0,0,0.00
32572,3230095,0,0,0,0.283467,0.239460,9.745252,0,0,0,0,0,0,0.00
32574,3230135,0,0,0,0.274157,0.253777,9.788458,0,0,0,0,0,0,0.00
32576,3230174,0,0,0,0.254484,0.263262,9.726251,0,0,0,0,0,0,0.00
32578,3230214,0,0,0,0.249969,0.244091,9.750293,0,0,0,0,0,0,0.00
32580,3230254,0,0,0,0.254947,0.258474,9.783800,0,0,0,0,0,0,0.00
32582,3230293,0,0,0,0.245187,0.234495,9.745548,0,0,0,0,0,0,0.00
32584,3230333,0,0,0,0.264837,0.229796,9.807748,0,0,0,0,0,0,0.00
32586,3230373,0,0,0,0.264324,0.229796,9.740616,0,0,0,0,0,0,0.00
32588,3230413,0,0,0,0.264243,0.215435,9.721458,0,0,0,0,0,0,0.00
32591,3230452,0,0,0,0.269403,0.205883,9.764594,0,0,0,0,0,0,0.00
32593,3230492,0,0,0,0.293248,0.234717,9.769161,0,0,0,0,0,0,0.00
32595,3230532,0,0,0,0.283358,0.239460,9.730866,0,0,0,0,0,0,0.00
32597,3230571,0,0,0,0.264603,0.248945,9.788538,0,0,0,0,0,0,0.00
32599,3230611,0,0,0,0.249939,0.258452,9.755066,0,0,0,0,0,0,0.00
32601,3230651,0,0,0,0.264244,0.263307,9.750154,0,0,0,0,0,0,0.00
32603,3230690,0,0,0,0.255093,0.234539,9.788632,0,0,0,0,0,0,0.00
32604,3230710,0,0,0,0.240723,0.244046,9.793523,0,0,0,0,0,0,0.00
32607,3230770,0,0,0,0.235641,0.220089,9.740849,0,0,0,0,0,0,0.00
32608,3230790,0,0,0,0.250064,0.239305,9.759892,0,0,0,0,0,0,0.00
32611,3230829,0,0,0,0.269221,0.229818,9.754966,0,0,0,0,0,0,0.00
32613,3230869,0,0,0,0.298037,0.234739,9.769125,0,0,0,0,0,0,0.00
32615,3230909,0,0,0,0.269082,0.244180,9.745353,0,0,0,0,0,0,0.00
32617,3230948,0,0,0,0.264155,0.258519,9.735776,0,0,0,0,0,0,0.00
32619,3230988,0,0,0,0.288182,0.239482,9.735624,0,0,0,0,0,0,0.00
32621,3231028,0,0,0,0.269427,0.248967,9.793297,0,0,0,0,0,0,0.00
32623,3231067,0,0,0,0.250005,0.244091,9.755089,0,0,0,0,0,0,0.00
32625,3231107,0,0,0,0.225883,0.267917,9.745642,0,0,0,0,0,0,0.00
32627,3231147,0,0,0,0.235648,0.234450,9.750417,0,0,0,0,0,0,0.00
32629,3231187,0,0,0,0.245268,0.248857,9.764708,0,0,0,0,0,0,0.00
32631,3231207,0.239058,0.247166,9.758385,0,0,0,-0.156467,0.647300,-0.618710,3.212793,-2.646900,-11.050061,28.53
32634,3231266,0,0,0,0.255041,0.229752,9.779050,0,0,0,0,0,0,0.00
32636,3231306,0,0,0,0.273841,0.234628,9.735741,0,0,0,0,0,0,0.00
32637,3231325,0,0,0,0.273900,0.253777,9.754892,0,0,0,0,0,0,0.00
32639,3231365,0,0,0,0.302861,0.234761,9.773884,0,0,0,0,0,0,0.00
32641,3231405,0,0,0,0.278725,0.253799,9.759651,0,0,0,0,0,0,0.00
32643,3231445,0,0,0,0.278687,0.253799,9.754856,0,0,0,0,0,0,0.00
32645,3231484,0,0,0,0.269237,0.258541,9.774101,0,0,0,0,0,0,0.00
32647,3231524,0,0,0,0.254800,0.258474,9.764620,0,0,0,0,0,0,0.00
32651,3231603,0,0,0,0.240612,0.220111,9.764790,0,0,0,0,0,0,0.00
32654,3231643,0,0,0,0.245055,0.239283,9.731156,0,0,0,0,0,0,0.00
32656,3231683,0,0,0,0.259785,0.239349,9.778999,0,0,0,0,0,0,0.00
32658,3231722,0,0,0,0.273995,0.248989,9.764490,0,0,0,0,0,0,0.00
32660,3231762,0,0,0,0.283401,0.253821,9.745229,0,0,0,0,0,0,0.00
32662,3231802,0,0,0,0.293285,0.234717,9.773956,0,0,0,0,0,0,0.00
32664,3231842,0,0,0,0.302759,0.273058,9.783415,0,0,0,0,0,0,0.00
32666,3231881,0,0,0,0.273629,0.272924,9.730886,0,0,0,0,0,0,0.00
32667,3231901,0,0,0,0.264390,0.263307,9.769335,0,0,0,0,0,0,0.00
32670,3231961,0,0,0,0.221087,0.253532,9.736111,0,0,0,0,0,0,0.00
32671,3231980,0,0,0,0.240377,0.239260,9.745579,0,0,0,0,0,0,0.00
32674,3232020,0,0,0,0.254946,0.234539,9.769452,0,0,0,0,0,0,0.00
32676,3232060,0,0,0,0.249961,0.229730,9.740725,0,0,0,0,0,0,0.00
32678,3232100,0,0,0,0.259514,0.234562,9.740644,0,0,0,0,0,0,0.00
32680,3232139,0,0,0,0.269324,0.239393,9.774132,0,0,0,0,0,0,0.00
32682,3232179,0,0,0,0.293351,0.244291,9.788327,0,0,0,0,0,0,0.00
32684,3232219,0,0,0,0.278687,0.253799,9.754856,0,0,0,0,0,0,0.00
32686,3232258,0,0,0,0.288351,0.258630,9.769160,0,0,0,0,0,0,0.00
32688,3232298,0,0,0,0.259382,0.263285,9.740600,0,0,0,0,0,0,0.00
32690,3232338,0,0,0,0.283563,0.258608,9.769197,0,0,0,0,0,0,0.00
32692,3232377,0,0,0,0.259969,0.239349,9.802975,0,0,0,0,0,0,0.00
32694,3232407,0.266495,0.247572,9.777919,0,0,0,-0.139859,0.636087,-0.593148,3.216512,-2.649235,-11.046128,28.53
32697,3232457,0,0,0,0.221226,0.239171,9.745724,0,0,0,0,0,0,0.00
32699,3232496,0,0,0,0.254902,0.220178,9.755090,0,0,0,0,0,0,0.00
32701,3232536,0,0,0,0.264338,0.234584,9.745403,0,0,0,0,0,0,0.00
32702,3232556,0,0,0,0.240620,0.234472,9.774357,0,0,0,0,0,0,0.00
32704,3232596,0,0,0,0.278790,0.263373,9.774021,0,0,0,0,0,0,0.00
32706,3232635,0,0,0,0.273790,0.253777,9.740506,0,0,0,0,0,0,0.00
32708,3232675,0,0,0,0.268950,0.248967,9.730960,0,0,0,0,0,0,0.00
32710,3232715,0,0,0,0.293212,0.258653,9.778714,0,0,0,0,0,0,0.00
32714,3232794,0,0,0,0.250269,0.234517,9.783874,0,0,0,0,0,0,0.00
32717,3232834,0,0,0,0.230883,0.253577,9.764810,0,0,0,0,0,0,0.00
32719,3232874,0,0,0,0.245055,0.239283,9.731156,0,0,0,0,0,0,0.00
32721,3232913,0,0,0,0.245378,0.224920,9.764745,0,0,0,0,0,0,0.00
32723,3232953,0,0,0,0.259587,0.258497,9.764584,0,0,0,0,0,0,0.00
32725,3232993,0,0,0,0.264449,0.258519,9.774137,0,0,0,0,0,0,0.00
32727,3233032,0,0,0,0.278783,0.249012,9.764454,0,0,0,0,0,0,0.00
32729,3233072,0,0,0,0.278672,0.225076,9.735720,0,0,0,0,0,0,0.00
32731,3233112,0,0,0,0.283702,0.244246,9.778811,0,0,0,0,0,0,0.00
32733,3233151,0,0,0,0.288490,0.244268,9.778773,0,0,0,0,0,0,0.00
32735,3233191,0,0,0,0.259667,0.248923,9.769394,0,0,0,0,0,0,0.00
32736,3233211,0,0,0,0.259624,0.258497,9.769379,0,0,0,0,0,0,0.00
32739,3233251,0,0,0,0.250174,0.239305,9.774277,0,0,0,0,0,0,0.00
32741,3233290,0,0,0,0.245040,0.234495,9.726368,0,0,0,0,0,0,0.00
32743,3233330,0,0,0,0.245385,0.239283,9.774313,0,0,0,0,0,0,0.00
32745,3233370,0,0,0,0.250144,0.253666,9.779049,0,0,0,0,0,0,0.00
32747,3233409,0,0,0,0.269097,0.248967,9.750140,0,0,0,0,0,0,0.00
32749,3233449,0,0,0,0.259609,0.253711,9.764591,0,0,0,0,0,0,0.00
32751,3233489,0,0,0,0.278717,0.239438,9.750083,0,0,0,0,0,0,0.00
32753,3233529,0,0,0,0.278511,0.244225,9.726100,0,0,0,0,0,0,0.00
32755,3233568,0,0,0,0.283724,0.239460,9.778818,0,0,0,0,0,0,0.00
32757,3233608,0,0,0,0.264515,0.244158,9.774160,0,0,0,0,0,0,0.00
32760,3233648,0,0,0,0.264390,0.239371,9.754988,0,0,0,0,0,0,0.00
32762,3233687,0,0,0,0.226066,0.243980,9.755271,0,0,0,0,0,0,0.00
32764,3233727,0,0,0,0.240268,0.239260,9.731194,0,0,0,0,0,0,0.00
32766,3233767,0,0,0,0.235787,0.244024,9.774379,0,0,0,0,0,0,0.00
32768,3233806,0,0,0,0.250174,0.239305,9.774277,0,0,0,0,0,0,0.00
32770,3233846,0,0,0,0.264471,0.253733,9.774145,0,0,0,0,0,0,0.00
32772,3233886,0,0,0,0.264310,0.248945,9.750176,0,0,0,0,0,0,0.00
32774,3233925,0,0,0,0.278753,0.239438,9.754879,0,0,0,0,0,0,0.00
32776,3233965,0,0,0,0.297964,0.234739,9.759535,0,0,0,0,0,0,0.00
32778,3234005,0,0,0,0.293293,0.249079,9.783525,0,0,0,0,0,0,0.00
32781,3234045,0,0,0,0.278871,0.229863,9.764483,0,0,0,0,0,0,0.00
32783,3234084,0,0,0,0.259580,0.244136,9.755016,0,0,0,0,0,0,0.00
32784,3234104,0,0,0,0.245210,0.253644,9.759905,0,0,0,0,0,0,0.00
32786,3234144,0,0,0,0.240349,0.253621,9.750351,0,0,0,0,0,0,0.00
32788,3234183,0,0,0,0.245348,0.239283,9.769518,0,0,0,0,0,0,0.00
32790,3234223,0,0,0,0.249976,0.258452,9.759861,0,0,0,0,0,0,0.00
32792,3234263,0,0,0,0.245224,0.258430,9.764692,0,0,0,0,0,0,0.00
32794,3234303,0,0,0,0.268907,0.258541,9.730945,0,0,0,0,0,0,0.00
32796,3234342,0,0,0,0.278769,0.244225,9.759666,0,0,0,0,0,0,0.00
32798,3234382,0,0,0,0.283717,0.234684,9.774016,0,0,0,0,0,0,0.00
32801,3234422,0,0,0,0.269105,0.248979,9.750128,0,0,0,0,0,0,0.00
32803,3234461,0,0,0,0.274141,0.234639,9.774089,0,0,0,0,0,0,0.00
32805,3234501,0,0,0,0.240582,0.244058,9.774329,0,0,0,0,0,0,0.00
32807,3234541,0,0,0,0.245121,0.234507,9.735946,0,0,0,0,0,0,0.00
32809,3234580,0,0,0,0.255049,0.253699,9.793386,0,0,0,0,0,0,0.00
32811,3234620,0,0,0,0.240304,0.248845,9.740756,0,0,0,0,0,0,0.00
32813,3234660,0,0,0,0.235392,0.267972,9.735967,0,0,0,0,0,0,0.00
32815,3234700,0,0,0,0.264522,0.244169,9.774147,0,0,0,0,0,0,0.00
32817,3234739,0,0,0,0.288197,0.253855,9.745179,0,0,0,0,0,0,0.00
32819,3234779,0,0,0,0.288343,0.229918,9.750011,0,0,0,0,0,0,0.00
32821,3234807,0.281509,0.239555,9.749804,0,0,0,-0.149814,0.609937,-0.578505,3.221355,-2.656532,-11.036564,28.52
32824,3234858,0,0,0,0.283519,0.229897,9.745254,0,0,0,0,0,0,0.00
32826,3234898,0,0,0,0.259595,0.234573,9.750222,0,0,0,0,0,0,0.00
32828,3234938,0,0,0,0.250143,0.239316,9.769468,0,0,0,0,0,0,0.00
32829,3234958,0,0,0,0.250011,0.244102,9.755075,0,0,0,0,0,0,0.00
32831,3234997,0,0,0,0.245049,0.258443,9.740704,0,0,0,0,0,0,0.00
32833,3235037,0,0,0,0.240450,0.248845,9.759936,0,0,0,0,0,0,0.00
32835,3235077,0,0,0,0.254535,0.253699,9.726254,0,0,0,0,0,0,0.00
32837,3235116,0,0,0,0.254791,0.253699,9.759819,0,0,0,0,0,0,0.00
32841,3235196,0,0,0,0.278511,0.253811,9.730867,0,0,0,0,0,0,0.00
32844,3235235,0,0,0,0.278738,0.244236,9.754858,0,0,0,0,0,0,0.00
32846,3235275,0,0,0,0.264661,0.253744,9.798108,0,0,0,0,0,0,0.00
32848,3235315,0,0,0,0.278746,0.234662,9.750077,0,0,0,0,0,0,0.00
32850,3235354,0,0,0,0.254879,0.234550,9.759849,0,0,0,0,0,0,0.00
32852,3235394,0,0,0,0.245341,0.234507,9.764716,0,0,0,0,0,0,0.00
32854,3235434,0,0,0,0.245049,0.258443,9.740704,0,0,0,0,0,0,0.00
32856,3235474,0,0,0,0.230816,0.253589,9.755206,0,0,0,0,0,0,0.00
32858,3235513,0,0,0,0.254769,0.258487,9.759811,0,0,0,0,0,0,0.00
32860,3235553,0,0,0,0.240399,0.244058,9.750354,0,0,0,0,0,0,0.00
32862,3235593,0,0,0,0.269251,0.248979,9.769308,0,0,0,0,0,0,0.00
32863,3235612,0,0,0,0.283585,0.239471,9.759624,0,0,0,0,0,0,0.00
32867,3235672,0,0,0,0.293242,0.229941,9.764360,0,0,0,0,0,0,0.00
32868,3235692,0,0,0,0.278796,0.239450,9.759661,0,0,0,0,0,0,0.00
32870,3235732,0,0,0,0.264382,0.234595,9.750186,0,0,0,0,0,0,0.00
32872,3235771,0,0,0,0.264668,0.220234,9.778980,0,0,0,0,0,0,0.00
32874,3235811,0,0,0,0.259624,0.244147,9.759798,0,0,0,0,0,0,0.00
32876,3235851,0,0,0,0.254909,0.244124,9.769424,0,0,0,0,0,0,0.00
32878,3235890,0,0,0,0.259565,0.248935,9.754995,0,0,0,0,0,0,0.00
32880,3235930,0,0,0,0.259646,0.263296,9.774153,0,0,0,0,0,0,0.00
32882,3235970,0,0,0,0.259624,0.244147,9.759798,0,0,0,0,0,0,0.00
32884,3236009,0,0,0,0.273994,0.234639,9.754909,0,0,0,0,0,0,0.00
32887,3236049,0,0,0,0.259969,0.224999,9.793394,0,0,0,0,0,0,0.00
32889,3236089,0,0,0,0.278870,0.239450,9.769251,0,0,0,0,0,0,0.00
32890,3236109,0,0,0,0.297772,0.229963,9.730759,0,0,0,0,0,0,0.00
32893,3236168,0,0,0,0.283775,0.229897,9.778820,0,0,0,0,0,0,0.00
32894,3236188,0,0,0,0.273973,0.239427,9.754902,0,0,0,0,0,0,0.00
32896,3236228,0,0,0,0.264301,0.244169,9.745377,0,0,0,0,0,0,0.00
32898,3236267,0,0,0,0.259440,0.244147,9.735823,0,0,0,0,0,0,0.00
32900,3236307,0,0,0,0.235868,0.244036,9.783957,0,0,0,0,0,0,0.00
32902,3236347,0,0,0,0.240282,0.253633,9.740748,0,0,0,0,0,0,0.00
32904,3236387,0,0,0,0.264206,0.248957,9.735779,0,0,0,0,0,0,0.00
32907,3236426,0,0,0,0.254982,0.244124,9.779016,0,0,0,0,0,0,0.00
32909,3236466,0,0,0,0.269032,0.248979,9.740538,0,0,0,0,0,0,0.00
32911,3236506,0,0,0,0.278708,0.234662,9.745282,0,0,0,0,0,0,0.00
32913,3236545,0,0,0,0.283702,0.229897,9.769229,0,0,0,0,0,0,0.00
32915,3236585,0,0,0,0.292993,0.244303,9.740363,0,0,0,0,0,0,0.00
32917,3236625,0,0,0,0.264338,0.244169,9.750172,0,0,0,0,0,0,0.00
32919,3236664,0,0,0,0.250077,0.253677,9.769445,0,0,0,0,0,0,0.00
32921,3236704,0,0,0,0.245224,0.244081,9.755112,0,0,0,0,0,0,0.00
32923,3236744,0,0,0,0.235751,0.253611,9.774350,0,0,0,0,0,0,0.00
32925,3236783,0,0,0,0.231065,0.239227,9.779205,0,0,0,0,0,0,0.00
32926,3236803,0,0,0,0.254542,0.268061,9.735821,0,0,0,0,0,0,0.00
32929,3236843,0,0,0,0.240553,0.234484,9.764753,0,0,0,0,0,0,0.00
32931,3236883,0,0,0,0.254807,0.234550,9.750258,0,0,0,0,0,0,0.00
32933,3236922,0,0,0,0.269010,0.253766,9.740530,0,0,0,0,0,0,0.00
32935,3236962,0,0,0,0.274038,0.249001,9.769272,0,0,0,0,0,0,0.00
32937,3237002,0,0,0,0.278907,0.239450,9.774046,0,0,0,0,0,0,0.00
32939,3237041,0,0,0,0.278511,0.253811,9.730867,0,0,0,0,0,0,0.00
32941,3237081,0,0,0,0.264273,0.258532,9.750149,0,0,0,0,0,0,0.00
32943,3237121,0,0,0,0.250077,0.253677,9.769445,0,0,0,0,0,0,0.00
32945,3237161,0,0,0,0.250033,0.239316,9.755083,0,0,0,0,0,0,0.00
32947,3237200,0,0,0,0.245254,0.253655,9.764687,0,0,0,0,0,0,0.00
32950,3237240,0,0,0,0.245188,0.244081,9.750317,0,0,0,0,0,0,0.00
32952,3237280,0,0,0,0.250260,0.229741,9.779074,0,0,0,0,0,0,0.00
32954,3237319,0,0,0,0.273877,0.244213,9.745304,0,0,0,0,0,0,0.00
32956,3237359,0,0,0,0.283673,0.244258,9.774002,0,0,0,0,0,0,0.00
32958,3237399,0,0,0,0.254990,0.234550,9.774234,0,0,0,0,0,0,0.00
32960,3237438,0,0,0,0.283607,0.258620,9.773979,0,0,0,0,0,0,0.00
32962,3237478,0,0,0,0.288182,0.249067,9.740392,0,0,0,0,0,0,0.00
32964,3237518,0,0,0,0.278819,0.258598,9.774015,0,0,0,0,0,0,0.00
32966,3237558,0,0,0,0.254909,0.244124,9.769424,0,0,0,0,0,0,0.00
32968,3237597,0,0,0,0.249997,0.239316,9.750288,0,0,0,0,0,0,0.00
32971,3237637,0,0,0,0.240443,0.234484,9.750368,0,0,0,0,0,0,0.00
32972,3237657,0,0,0,0.230926,0.253589,9.769591,0,0,0,0,0,0,0.00
32974,3237696,0,0,0,0.245349,0.248868,9.774284,0,0,0,0,0,0,0.00
32976,3237736,0,0,0,0.259462,0.239361,9.735830,0,0,0,0,0,0,0.00
32978,3237776,0,0,0,0.264595,0.244169,9.783738,0,0,0,0,0,0,0.00
32980,3237816,0,0,0,0.302964,0.253922,9.797817,0,0,0,0,0,0,0.00
32982,3237855,0,0,0,0.273760,0.253788,9.735699,0,0,0,0,0,0,0.00
32984,3237895,0,0,0,0.274156,0.239427,9.778878,0,0,0,0,0,0,0.00
32986,3237935,0,0,0,0.269237,0.244191,9.764521,0,0,0,0,0,0,0.00
32988,3237974,0,0,0,0.269009,0.229830,9.726182,0,0,0,0,0,0,0.00
32990,3238014,0,0,0,0.231072,0.229652,9.774424,0,0,0,0,0,0,0.00
32993,3238054,0,0,0,0.249960,0.263251,9.759840,0,0,0,0,0,0,0.00
32995,3238093,0,0,0,0.245246,0.239294,9.755119,0,0,0,0,0,0,0.00
32997,3238133,0,0,0,0.250107,0.263251,9.779021,0,0,0,0,0,0,0.00
32999,3238173,0,0,0,0.259617,0.253722,9.764578,0,0,0,0,0,0,0.00
33001,3238212,0,0,0,0.288256,0.249067,9.749982,0,0,0,0,0,0,0.00
33003,3238252,0,0,0,0.283490,0.244258,9.750027,0,0,0,0,0,0,0.00
33005,3238292,0,0,0,0.264375,0.244169,9.754967,0,0,0,0,0,0,0.00
33007,3238332,0,0,0,0.273994,0.258575,9.769257,0,0,0,0,0,0,0.00
33009,3238371,0,0,0,0.250041,0.229741,9.750302,0,0,0,0,0,0,0.00
33011,3238411,0,0,0,0.254952,0.234550,9.769439,0,0,0,0,0,0,0.00
33014,3238451,0,0,0,0.240802,0.220122,9.788753,0,0,0,0,0,0,0.00
33016,3238490,0,0,0,0.245180,0.253655,9.755096,0,0,0,0,0,0,0.00
33017,3238510,0,0,0,0.240370,0.258420,9.755126,0,0,0,0,0,0,0.00
33020,3238570,0,0,0,0.254975,0.253699,9.783795,0,0,0,0,0,0,0.00
33021,3238590,0,0,0,0.278613,0.239450,9.735685,0,0,0,0,0,0,0.00
33023,3238629,0,0,0,0.274076,0.249001,9.774067,0,0,0,0,0,0,0.00
33025,3238669,0,0,0,0.278826,0.249023,9.769236,0,0,0,0,0,0,0.00
33027,3238709,0,0,0,0.278738,0.244236,9.754858,0,0,0,0,0,0,0.00
33029,3238748,0,0,0,0.273929,0.249001,9.754887,0,0,0,0,0,0,0.00
33031,3238788,0,0,0,0.259639,0.224999,9.750237,0,0,0,0,0,0,0.00
33034,3238828,0,0,0,0.254821,0.239338,9.755047,0,0,0,0,0,0,0.00
33036,3238867,0,0,0,0.245421,0.224933,9.769526,0,0,0,0,0,0,0.00
33038,3238907,0,0,0,0.240259,0.234484,9.726393,0,0,0,0,0,0,0.00
33040,3238947,0,0,0,0.245254,0.253655,9.764687,0,0,0,0,0,0,0.00
33042,3238987,0,0,0,0.269061,0.258554,9.750113,0,0,0,0,0,0,0.00
33044,3239026,0,0,0,0.274054,0.253788,9.774059,0,0,0,0,0,0,0.00
33046,3239066,0,0,0,0.269229,0.253766,9.769300,0,0,0,0,0,0,0.00
33048,3239106,0,0,0,0.273863,0.263362,9.754864,0,0,0,0,0,0,0.00
33050,3239145,0,0,0,0.283468,0.249045,9.750019,0,0,0,0,0,0,0.00
33051,3239165,0,0,0,0.293263,0.249090,9.778717,0,0,0,0,0,0,0.00
33053,3239205,0,0,0,0.269119,0.229830,9.740567,0,0,0,0,0,0,0.00
33056,3239245,0,0,0,0.278891,0.210727,9.754910,0,0,0,0,0,0,0.00
33058,3239284,0,0,0,0.255210,0.234550,9.803005,0,0,0,0,0,0,0.00
33060,3239324,0,0,0,0.259345,0.248935,9.726225,0,0,0,0,0,0,0.00
33062,3239364,0,0,0,0.264448,0.244169,9.764557,0,0,0,0,0,0,0.00
33064,3239403,0,0,0,0.259748,0.248935,9.778972,0,0,0,0,0,0,0.00
33066,3239443,0,0,0,0.273782,0.249001,9.735706,0,0,0,0,0,0,0.00
33068,3239483,0,0,0,0.259617,0.253722,9.764578,0,0,0,0,0,0,0.00
33070,3239522,0,0,0,0.269530,0.244191,9.802882,0,0,0,0,0,0,0.00
33072,3239562,0,0,0,0.264089,0.258532,9.726173,0,0,0,0,0,0,0.00
33074,3239602,0,0,0,0.274119,0.239427,9.774082,0,0,0,0,0,0,0.00
33077,3239641,0,0,0,0.273811,0.234639,9.730933,0,0,0,0,0,0,0.00
33079,3239681,0,0,0,0.259858,0.224999,9.779009,0,0,0,0,0,0,0.00
33081,3239721,0,0,0,0.255055,0.244124,9.788606,0,0,0,0,0,0,0.00
33083,3239761,0,0,0,0.235604,0.253611,9.755170,0,0,0,0,0,0,0.00
33085,3239800,0,0,0,0.249703,0.263251,9.726274,0,0,0,0,0,0,0.00
33087,3239840,0,0,0,0.245290,0.253655,9.769482,0,0,0,0,0,0,0.00
33089,3239880,0,0,0,0.274038,0.249001,9.769272,0,0,0,0,0,0,0.00
33091,3239919,0,0,0,0.278774,0.244236,9.759653,0,0,0,0,0,0,0.00
33093,3239959,0,0,0,0.264742,0.244169,9.802918,0,0,0,0,0,0,0.00
33095,3239999,0,0,0,0.269097,0.234617,9.740560,0,0,0,0,0,0,0.00
33098,3240038,0,0,0,0.292963,0.234729,9.730787,0,0,0,0,0,0,0.00
33099,3240058,0,0,0,0.283475,0.239471,9.745239,0,0,0,0,0,0,0.00
33101,3240098,0,0,0,0.255239,0.220189,9.798233,0,0,0,0,0,0,0.00
33103,3240138,0,0,0,0.259492,0.248935,9.745405,0,0,0,0,0,0,0.00
33105,3240177,0,0,0,0.255166,0.244124,9.802991,0,0,0,0,0,0,0.00
33107,3240217,0,0,0,0.254719,0.253699,9.750229,0,0,0,0,0,0,0.00
33109,3240257,0,0,0,0.254682,0.253699,9.745434,0,0,0,0,0,0,0.00
33111,3240296,0,0,0,0.250077,0.253677,9.769445,0,0,0,0,0,0,0.00
33113,3240336,0,0,0,0.259675,0.248935,9.769381,0,0,0,0,0,0,0.00
33115,3240376,0,0,0,0.278525,0.258598,9.735655,0,0,0,0,0,0,0.00
33118,3240416,0,0,0,0.269318,0.258554,9.783679,0,0,0,0,0,0,0.00
33120,3240455,0,0,0,0.259426,0.239361,9.731035,0,0,0,0,0,0,0.00
33122,3240495,0,0,0,0.278913,0.229875,9.769265,0,0,0,0,0,0,0.00
33124,3240535,0,0,0,0.146390,0.013831,9.842546,0,0,0,0,0,0,0.00
33126,3240574,0,0,0,0.410330,0.086881,9.336910,0,0,0,0,0,0,0.00
33128,3240614,0,0,0,0.316728,-0.741763,9.751349,0,0,0,0,0,0,0.00
33130,3240654,0,0,0,0.452984,0.149272,10.568908,0,0,0,0,0,0,0.00
33132,3240693,0,0,0,1.034982,0.688185,9.355189,0,0,0,0,0,0,0.00
33134,3240733,0,0,0,0.514647,-0.128074,9.700914,0,0,0,0,0,0,0.00
33136,3240773,0,0,0,0.174341,-1.020104,10.376278,0,0,0,0,0,0,0.00
33138,3240812,0,0,0,1.311302,-0.545637,9.062545,0,0,0,0,0,0,0.00
33141,3240852,0,0,0,0.119488,0.296141,10.249909,0,0,0,0,0,0,0.00
33143,3240892,0,0,0,-0.045606,0.759740,10.226443,0,0,0,0,0,0,0.00
33144,3240912,0,0,0,0.361097,0.847818,9.614202,0,0,0,0,0,0,0.00
33146,3240951,0,0,0,0.308688,0.924190,9.067801,0,0,0,0,0,0,0.00
33148,3240991,0,0,0,0.374042,0.311700,9.734845,0,0,0,0,0,0,0.00
33150,3241031,0,0,0,0.794016,0.012042,10.000681,0,0,0,0,0,0,0.00
33152,3241070,0,0,0,0.707757,-0.227716,9.848267,0,0,0,0,0,0,0.00
33154,3241110,0,0,0,0.756024,-0.184409,9.924557,0,0,0,0,0,0,0.00
33156,3241150,0,0,0,0.671690,-0.199149,9.531997,0,0,0,0,0,0,0.00
33158,3241190,0,0,0,0.500834,-0.128140,9.772949,0,0,0,0,0,0,0.00
33161,3241229,0,0,0,0.468788,-0.329357,9.845445,0,0,0,0,0,0,0.00
33163,3241269,0,0,0,0.534286,-0.314684,9.653110,0,0,0,0,0,0,0.00
33165,3241309,0,0,0,0.386438,-0.128674,9.840954,0,0,0,0,0,0,0.00
33167,3241348,0,0,0,0.406947,-0.401453,9.855620,0,0,0,0,0,0,0.00
33169,3241388,0,0,0,0.585980,-0.142102,9.628464,0,0,0,0,0,0,0.00
33171,3241428,0,0,0,0.380308,0.172895,9.845313,0,0,0,0,0,0,0.00
33173,3241467,0,0,0,0.169014,0.253300,9.813220,0,0,0,0,0,0,0.00
33175,3241507,0,0,0,0.027472,0.080317,9.359007,0,0,0,0,0,0,0.00
33177,3241547,0,0,0,-0.321603,-0.438338,9.736525,0,0,0,0,0,0,0.00
33179,3241586,0,0,0,-0.105879,-1.150647,9.971002,0,0,0,0,0,0,0.00
33181,3241607,-0.178465,-0.560563,9.711444,0,0,0,-0.261658,0.555580,-0.531507,3.500411,-2.506847,-14.835077,28.52
33184,3241666,0,0,0,0.241355,0.071742,9.146399,0,0,0,0,0,0,0.00
33186,3241706,0,0,0,0.539187,0.226308,9.364482,0,0,0,0,0,0,0.00
33188,3241745,0,0,0,0.895284,0.543884,10.411469,0,0,0,0,0,0,0.00
33190,3241785,0,0,0,0.980622,0.692707,9.763204,0,0,0,0,0,0,0.00
33191,3241805,0,0,0,0.910186,0.788137,9.375158,0,0,0,0,0,0,0.00
33193,3241845,0,0,0,1.390142,0.072264,9.722726,0,0,0,0,0,0,0.00
33195,3241884,0,0,0,0.765922,0.394882,10.311984,0,0,0,0,0,0,0.00
33197,3241924,0,0,0,0.259377,0.454803,9.227173,0,0,0,0,0,0,0.00
33201,3242003,0,0,0,-0.277951,0.433125,10.329432,0,0,0,0,0,0,0.00
33204,3242043,0,0,0,0.042314,0.496868,9.669930,0,0,0,0,0,0,0.00
33206,3242083,0,0,0,-0.022241,0.721575,9.502221,0,0,0,0,0,0,0.00
33208,3242122,0,0,0,-0.044042,0.927313,9.904871,0,0,0,0,0,0,0.00
33210,3242162,0,0,0,0.118223,0.841898,9.783893,0,0,0,0,0,0,0.00
33212,3242202,0,0,0,0.027993,0.807966,9.861359,0,0,0,0,0,0,0.00
33214,3242241,0,0,0,0.098576,0.693407,9.630826,0,0,0,0,0,0,0.00
33216,3242281,0,0,0,-0.121552,0.788129,9.704275,0,0,0,0,0,0,0.00
33218,3242321,0,0,0,-0.077575,0.778755,9.814251,0,0,0,0,0,0,0.00
33220,3242361,0,0,0,-0.112349,0.869555,9.704076,0,0,0,0,0,0,0.00
33222,3242400,0,0,0,-0.155880,0.797548,9.603816,0,0,0,0,0,0,0.00
33225,3242440,0,0,0,-0.144490,0.945995,9.929581,0,0,0,0,0,0,0.00
33226,3242460,0,0,0,-0.183415,0.969752,9.862703,0,0,0,0,0,0,0.00
33228,3242499,0,0,0,-0.155278,0.826271,9.699675,0,0,0,0,0,0,0.00
33230,3242539,0,0,0,-0.223025,0.902555,9.652112,0,0,0,0,0,0,0.00
33232,3242579,0,0,0,-0.168921,0.869288,9.819594,0,0,0,0,0,0,0.00
33234,3242619,0,0,0,-0.140358,0.816763,9.766712,0,0,0,0,0,0,0.00
33236,3242658,0,0,0,0.066197,0.621445,9.736686,0,0,0,0,0,0,0.00
33238,3242698,0,0,0,0.072103,0.449129,9.780075,0,0,0,0,0,0,0.00
33240,3242738,0,0,0,0.230034,0.344544,9.707113,0,0,0,0,0,0,0.00
33242,3242777,0,0,0,0.360247,0.139297,9.706453,0,0,0,0,0,0,0.00
33245,3242817,0,0,0,0.337524,0.153546,9.874442,0,0,0,0,0,0,0.00
33247,3242857,0,0,0,0.298264,0.234751,9.797883,0,0,0,0,0,0,0.00
33249,3242896,0,0,0,0.350657,0.110529,9.687389,0,0,0,0,0,0,0.00
33251,3242936,0,0,0,0.342368,-0.018769,9.778772,0,0,0,0,0,0,0.00
33253,3242976,0,0,0,0.221862,0.133864,9.765056,0,0,0,0,0,0,0.00
33255,3243015,0,0,0,0.148802,0.348954,9.731699,0,0,0,0,0,0,0.00
33257,3243055,0,0,0,0.090934,0.511452,9.775036,0,0,0,0,0,0,0.00
33259,3243095,0,0,0,0.067339,0.516127,9.823162,0,0,0,0,0,0,0.00
33261,3243135,0,0,0,0.335703,1.053555,9.546929,0,0,0,0,0,0,0.00
33263,3243174,0,0,0,0.492404,-0.760111,10.172043,0,0,0,0,0,0,0.00
33265,3243214,0,0,0,0.790634,-0.792223,9.704679,0,0,0,0,0,0,0.00
33268,3243254,0,0,0,0.842199,-0.815915,9.546076,0,0,0,0,0,0,0.00
33270,3243293,0,0,0,0.731565,-0.845170,10.088842,0,0,0,0,0,0,0.00
33271,3243313,0,0,0,0.649549,-0.821612,10.022292,0,0,0,0,0,0,0.00
33274,3243373,0,0,0,0.474461,-0.803264,9.678320,0,0,0,0,0,0,0.00
